SessionId,Exists,Subjectsdo,Treatment,Period,Subject,Group,Profit,TotalProfit,Participate,rnd,rnd2,Rank,PlayedRoleA,PlayedRoleB,PlayedRoleC,TotalPayoff,Role,EarningsAgent,EarningsPrincipal,Example1,Example2,Example3,A1,A2,A3,A4,A5,A6,Q1,Q2,Q3,Q4,Q5,Q6,TimeOKTestOK,TransferIsBounded,TimeOKPrincipalDecisionOK,TransferBounded,TransferUnbounded,TimeOKAgentDecisionOK,TransferActual,Payoff,EarningAgent,EarningPrincipal,TreatmentRun,TimeOKCalculationsOK,TimeOKAnnounceRoundOK,TimeOKAnnounceQuestionsOK,Q1a,Q1b,Q1c,Q2a,Q2b,Q2c,Q3a,Q3b,Q3c,Q4a,Q4b,Q4c,Q5a,Q5b,Q5c,Q6a,Q6b,Q6c,Q7a,Q7b,Q7c,Q8a,Q8b,Q8c,Q9a,Q9b,Q9c,Q10a,Q10b,Q10c,Q11a,Q11b,Q11c,Q12a,Q12b,Q12c,TimeContinueExplanationOK,TimeContinueScenario1OK,TimeContinueScenario2OK,TimeContinueScenario3OK,TimeContinueScenario4OK,TimeContinueScenario5OK,TimeContinueScenario6OK,TimeContinueScenario7OK,TimeContinueScenario8OK,TimeContinueScenario9OK,TimeContinueScenario10OK,TimeContinueScenario11OK,TimeContinueScenario12OK140429_0920,1,subjects,1,1,1,4,80,80,1,0.266806,0.464753,8,0,1,0,80,2,0,0,22,12,6,98,44,108,24,114,12,98,44,108,24,114,12,99999,1,99999,40,40,0,40,80,0,80,0,0,0,0,4,6,6,6,1,6,5,5,4,5,4,2,5,2,4,2,5,3,6,6,2,5,2,7,1,4,6,5,5,5,3,6,3,5,5,2,99,86,88,90,79,91,90,93,89,85,81,84,87140429_0920,1,subjects,1,1,2,9,40,40,1,0.204943,0.937956,6,0,1,0,40,2,0,0,22,12,6,98,44,108,24,114,12,98,44,108,24,114,12,99999,1,99999,20,40,0,20,40,0,40,0,-,-,-,3,7,7,7,5,7,5,5,2,4,5,6,6,3,2,4,6,1,6,7,6,5,6,7,2,5,4,6,7,7,5,6,6,7,7,7,106,80,86,84,83,88,88,90,83,85,88,76,89140429_0920,1,subjects,1,1,3,6,0,0,1,0.4653,0.575311,14,0,1,0,0,2,0,0,22,12,6,98,44,108,24,114,12,98,44,108,24,114,12,99999,0,99999,10,0,0,0,0,0,0,0,-,-,-,5,7,4,7,2,5,7,3,6,7,4,7,5,6,4,5,7,2,7,7,4,7,6,7,3,3,7,7,6,5,2,7,6,7,7,5,113,80,90,80,84,87,92,90,90,89,91,90,77140429_0920,1,subjects,1,1,4,10,110,110,1,0.016881,0.970671,1,1,0,0,110,1,0,0,22,12,6,98,44,108,24,114,12,98,44,108,24,114,12,99999,1,0,10,10,99999,10,110,110,0,0,-,-,-,1,5,7,7,1,4,6,2,7,7,5,1,7,1,6,1,7,1,7,6,7,5,5,7,3,7,5,5,7,2,4,7,1,7,3,5,115,85,86,87,84,87,92,85,88,81,87,86,84140429_0920,1,subjects,1,1,5,1,22,22,1,0.061728,0.039351,4,0,1,0,22,2,0,0,22,12,6,98,44,108,24,114,12,98,44,108,24,114,12,99999,0,99999,11,11,0,11,22,0,22,0,-,-,-,6,5,5,6,2,7,4,7,6,5,7,5,5,1,3,7,5,2,3,5,6,7,4,4,3,6,6,7,7,5,4,7,5,6,3,7,106,89,91,90,91,90,91,89,94,87,96,91,94140429_0920,1,subjects,1,1,6,8,100,100,1,0.058423,0.915705,3,1,0,0,100,1,0,0,22,12,6,98,44,108,24,114,12,98,44,108,24,114,12,99999,1,0,20,20,99999,20,100,100,0,0,-,-,-,4,7,7,7,1,4,7,5,5,7,7,7,7,5,6,6,7,7,7,7,7,7,7,7,2,7,7,3,6,3,5,5,7,7,7,7,106,85,86,90,89,90,90,94,92,88,92,90,93140429_0920,1,subjects,1,1,7,5,110,110,1,0.294205,0.737339,9,1,0,0,110,1,0,0,22,12,6,98,44,108,24,114,12,98,44,108,24,114,12,99999,1,0,10,0,99999,10,110,110,0,0,-,-,-,2,6,2,2,5,6,3,3,2,6,6,7,5,2,6,1,6,2,6,6,2,5,3,7,4,4,5,5,6,7,1,6,2,7,7,5,106,76,90,74,85,83,90,90,89,85,85,78,74140429_0920,1,subjects,1,1,8,3,110,110,1,0.819087,0.390196,19,1,0,0,110,1,0,0,22,12,6,98,44,108,24,114,12,98,44,108,24,114,12,99999,0,0,10,10,99999,10,110,110,0,0,-,-,-,2,6,6,6,2,5,5,5,6,6,6,4,7,5,5,3,6,4,6,6,4,4,6,7,5,6,7,6,7,5,5,7,5,7,6,5,107,87,91,88,89,93,94,94,91,92,93,90,90140429_0920,1,subjects,1,1,9,2,20,20,1,0.655763,0.208904,16,0,1,0,20,2,0,0,22,12,6,98,44,108,24,114,12,98,44,108,24,114,12,99999,1,99999,10,0,0,10,20,0,20,0,-,-,-,1,6,7,6,2,4,1,3,5,4,5,5,5,3,2,1,5,1,5,6,2,6,4,6,4,2,6,4,6,6,6,5,2,6,6,2,89,67,82,85,55,60,71,60,64,30,68,72,81140429_0920,1,subjects,1,1,10,1,109,109,1,0.254588,0.196321,7,1,0,0,109,1,0,0,22,12,6,98,44,108,24,114,12,98,44,108,24,114,12,99999,0,0,11,11,99999,11,109,109,0,0,-,-,-,4,7,3,7,1,6,7,5,7,6,6,4,5,5,3,5,6,5,6,5,5,2,5,7,3,5,5,5,7,5,4,7,3,6,7,5,101,80,91,89,86,88,91,90,90,90,93,91,90140429_0920,1,subjects,1,1,11,5,20,20,1,0.410644,0.480169,12,0,1,0,20,2,0,0,22,12,6,98,44,108,24,114,12,98,44,108,24,114,12,99999,1,99999,10,0,0,10,20,0,20,0,-,-,-,3,7,6,7,5,4,6,4,4,4,7,1,7,3,1,5,7,3,6,7,2,6,2,5,1,5,7,5,6,6,2,6,1,7,7,7,85,86,84,80,83,84,88,90,65,80,81,81,86140429_0920,1,subjects,1,1,12,7,102,102,1,0.573016,0.815335,15,1,0,0,102,1,0,0,22,12,6,98,44,108,24,114,12,98,44,108,24,114,12,99999,1,0,18,17,99999,18,102,102,0,0,-,-,-,5,6,7,7,5,6,6,4,5,7,3,5,6,4,1,4,7,5,1,7,2,7,2,7,2,3,6,6,7,7,2,4,7,5,5,7,111,82,89,91,81,82,93,87,93,90,92,66,89140429_0920,1,subjects,1,1,13,8,40,40,1,0.754463,0.857846,18,0,1,0,40,2,0,0,22,12,6,98,44,108,24,114,12,98,44,108,24,114,12,99999,1,99999,20,20,0,20,40,0,40,0,-,-,-,1,4,6,7,1,5,4,3,6,4,6,2,5,2,2,1,6,1,5,6,4,5,5,5,3,5,5,5,7,7,2,6,3,6,6,5,106,75,83,88,83,89,91,90,84,84,90,82,86140429_0920,1,subjects,1,1,14,4,80,80,1,0.431391,0.711665,13,1,0,0,80,1,0,0,22,12,6,98,44,108,24,114,12,98,44,108,24,114,12,99999,1,0,40,40,99999,40,80,80,0,0,-,-,-,1,7,7,7,1,6,7,1,5,7,2,1,6,6,6,5,6,7,7,7,4,4,4,6,3,3,2,6,7,6,4,7,1,7,7,2,90,81,83,83,83,83,87,89,78,69,86,73,82140429_0920,1,subjects,1,1,15,2,110,110,1,0.388009,0.267962,11,1,0,0,110,1,0,0,22,12,6,98,44,108,24,114,12,98,44,108,24,114,12,99999,1,0,10,0,99999,10,110,110,0,0,-,-,-,3,7,7,6,5,7,1,2,6,6,5,1,6,1,3,2,6,2,6,7,3,6,3,7,2,5,7,7,7,7,5,7,2,7,7,6,99,86,89,89,79,88,93,93,85,89,95,83,90140429_0920,1,subjects,1,1,16,6,120,120,1,0.697811,0.797939,17,1,0,0,120,1,0,0,22,12,6,98,44,108,24,114,12,98,44,108,24,114,12,99999,0,0,10,0,99999,0,120,120,0,0,-,-,-,7,6,5,7,4,7,5,5,5,4,6,7,6,1,2,5,5,2,7,6,3,5,6,7,4,3,7,5,6,7,5,7,2,7,7,6,88,84,88,92,86,90,94,86,86,90,92,86,93140429_0920,1,subjects,1,1,17,3,20,20,1,0.03224,0.245694,2,0,1,0,20,2,0,0,22,12,6,98,44,108,24,114,12,98,44,108,24,114,12,99999,0,99999,10,10,0,10,20,0,20,0,-,-,-,1,6,7,7,2,7,7,5,5,6,3,5,7,1,1,2,7,3,3,7,2,5,1,7,3,5,7,4,7,5,5,7,2,5,7,5,102,84,87,91,82,89,93,88,90,84,93,87,88140429_0920,1,subjects,1,1,18,9,100,100,1,0.106321,0.942371,5,1,0,0,100,1,0,0,22,12,6,98,44,108,24,114,12,98,44,108,24,114,12,99999,1,0,20,40,99999,20,100,100,0,0,-,-,-,2,7,7,7,1,7,2,2,7,7,4,7,7,4,5,4,4,1,6,7,3,5,6,7,1,1,6,7,7,7,2,7,1,4,6,6,106,85,91,91,86,90,89,92,86,84,93,86,89140429_0920,1,subjects,1,1,19,7,36,36,1,0.853287,0.847953,20,0,1,0,36,2,0,0,22,12,6,98,44,108,24,114,12,98,44,108,24,114,12,99999,1,99999,18,17,0,18,36,0,36,0,-,-,-,1,7,5,7,2,6,1,1,7,7,5,5,5,2,4,1,6,1,2,7,1,4,3,7,1,1,7,4,3,7,2,7,1,4,7,2,99,86,87,89,83,90,91,83,81,85,82,79,86140429_0920,1,subjects,1,1,20,10,20,20,1,0.38296,0.95467,10,0,1,0,20,2,0,0,22,12,6,98,44,108,24,114,12,98,44,108,24,114,12,99999,1,99999,10,10,0,10,20,0,20,0,-,-,-,4,6,6,7,1,6,1,1,1,6,6,5,1,5,1,1,4,1,7,7,1,6,1,7,4,7,6,7,7,6,5,6,5,7,7,5,112,83,88,88,86,86,93,93,88,89,94,86,91140429_1147,1,subjects,1,1,1,5,20,20,1,0.880574,0.316856,16,0,1,0,20,2,0,0,22,12,6,98,44,108,24,114,12,98,44,108,24,114,12,99999,1,99999,10,50,0,10,20,0,20,0,0,0,0,6,4,5,6,3,5,5,6,5,6,4,5,6,4,3,5,6,6,5,6,7,5,5,7,6,6,6,3,6,4,3,5,4,6,6,7,118,82,87,87,81,89,91,91,81,83,89,81,88140429_1147,1,subjects,1,1,2,4,80,80,1,0.645291,0.286032,14,0,1,0,80,2,0,0,22,12,6,98,44,108,24,114,12,98,44,108,24,114,12,99999,0,99999,20,40,0,40,80,0,80,0,-,-,-,2,7,6,7,1,7,5,4,4,6,6,6,6,2,5,4,6,3,6,7,4,6,4,6,4,6,7,5,7,7,6,6,2,5,6,6,94,77,81,79,73,84,78,88,79,79,86,80,81140429_1147,1,subjects,1,1,3,1,80,80,1,0.555635,0.084422,11,1,0,0,80,1,0,0,22,12,6,98,44,108,24,114,12,98,44,108,24,114,12,99999,0,0,40,40,99999,40,80,80,0,0,-,-,-,3,6,7,7,1,6,6,4,6,6,4,6,4,2,2,5,5,6,5,5,4,7,4,5,1,2,6,2,6,7,1,7,1,6,7,6,96,86,83,80,86,81,92,85,78,78,91,75,92140429_1147,1,subjects,1,1,4,3,110,110,1,0.015,0.323416,1,1,0,0,110,1,0,0,22,12,6,98,44,108,24,114,12,98,44,108,24,114,12,99999,1,0,10,0,99999,10,110,110,0,0,-,-,-,3,5,5,7,4,7,6,5,6,2,6,6,6,2,6,5,4,2,6,6,4,5,6,7,4,7,7,7,6,6,7,4,6,7,7,5,90,75,85,82,73,80,80,74,71,96,92,96,84140429_1147,1,subjects,1,1,5,7,110,110,1,0.650957,0.638561,15,1,0,0,110,1,0,0,22,12,6,98,44,108,24,114,12,98,44,108,24,114,12,99999,1,0,10,10,99999,10,110,110,0,0,-,-,-,2,7,5,7,2,6,4,5,6,6,4,6,7,1,7,2,7,1,5,7,6,6,2,7,6,7,7,6,5,7,5,7,1,7,7,2,97,71,67,79,76,87,88,80,80,78,90,73,73140429_1147,1,subjects,1,1,6,4,80,80,1,0.580098,0.367471,13,1,0,0,80,1,0,0,22,12,6,98,44,108,24,114,12,98,44,108,24,114,12,99999,0,0,20,40,99999,40,80,80,0,0,-,-,-,5,6,4,7,1,4,4,3,2,6,3,1,6,3,1,1,2,2,1,6,3,5,2,7,2,4,6,5,6,6,5,7,2,7,7,6,102,62,80,66,41,68,84,79,69,64,73,69,59140429_1147,1,subjects,1,1,7,6,70,70,1,0.563779,0.367012,12,0,1,0,70,2,0,0,22,12,6,98,44,108,24,114,12,98,44,108,24,114,12,99999,0,99999,20,35,0,35,70,0,70,0,-,-,-,6,7,5,7,2,5,7,1,4,7,3,4,7,1,3,1,7,3,5,7,1,7,1,5,3,6,3,4,6,7,3,7,1,5,6,2,101,85,82,87,78,79,83,88,80,78,82,78,85140429_1147,1,subjects,1,1,8,5,110,110,1,0.371097,0.447968,7,1,0,0,110,1,0,0,22,12,6,98,44,108,24,114,12,98,44,108,24,114,12,99999,1,0,10,50,99999,10,110,110,0,0,-,-,-,4,6,6,7,1,7,3,4,7,1,7,3,7,1,6,1,7,5,7,7,1,4,1,7,1,1,7,6,7,6,7,7,1,7,6,6,68,84,90,87,74,86,84,93,77,82,86,83,81140429_1147,1,subjects,1,1,9,2,110,110,1,0.213693,0.132748,5,1,0,0,110,1,0,0,22,12,6,98,44,108,24,114,12,98,44,108,24,114,12,99999,1,0,10,0,99999,10,110,110,0,0,-,-,-,1,6,5,7,7,7,3,2,5,2,6,3,2,5,6,5,5,5,6,6,3,5,5,6,7,7,7,7,7,7,5,6,7,6,5,6,114,85,91,89,85,90,93,89,93,87,96,95,94140429_1147,1,subjects,1,1,10,9,110,110,1,0.90505,0.874555,17,1,0,0,110,1,0,0,22,12,6,98,44,108,24,114,12,98,44,108,24,114,12,99999,1,0,10,0,99999,10,110,110,0,0,-,-,-,1,7,4,6,2,7,4,4,6,3,6,1,5,2,3,1,4,3,4,6,3,6,6,6,2,3,5,2,6,7,4,4,2,6,7,4,101,85,83,90,86,88,87,86,88,87,90,89,89140429_1147,1,subjects,1,1,11,7,20,20,1,0.403789,0.56091,8,0,1,0,20,2,0,0,22,12,6,98,44,108,24,114,12,98,44,108,24,114,12,99999,1,99999,10,10,0,10,20,0,20,0,-,-,-,2,4,2,7,2,7,4,5,5,6,7,3,7,2,6,4,7,2,6,6,3,6,2,6,5,4,6,7,7,7,5,6,2,6,6,4,90,71,81,83,78,86,87,90,79,72,69,76,85140429_1147,1,subjects,1,1,12,6,85,85,1,0.072384,0.561486,3,1,0,0,85,1,0,0,22,12,6,98,44,108,24,114,12,98,44,108,24,114,12,99999,0,0,20,35,99999,35,85,85,0,0,-,-,-,2,7,7,7,4,7,5,3,6,4,6,4,7,2,3,2,7,2,3,1,6,6,2,7,2,5,7,4,7,6,4,6,1,7,7,6,93,73,81,81,64,82,81,79,71,71,70,60,83140429_1147,1,subjects,1,1,13,8,95,95,1,0.481955,0.80689,9,1,0,0,95,1,0,0,22,12,6,98,44,108,24,114,12,98,44,108,24,114,12,99999,1,0,25,10,99999,25,95,95,0,0,-,-,-,6,6,5,7,4,7,5,7,5,4,6,6,7,2,4,7,7,2,6,5,3,5,2,7,4,5,5,7,7,6,6,7,2,6,6,7,98,79,87,87,82,86,92,81,88,78,87,76,85140429_1147,1,subjects,1,1,14,9,20,20,1,0.019371,0.890952,2,0,1,0,20,2,0,0,22,12,6,98,44,108,24,114,12,98,44,108,24,114,12,99999,1,99999,10,0,0,10,20,0,20,0,-,-,-,4,2,1,7,3,5,7,2,5,6,3,5,2,6,1,1,7,3,2,4,7,3,3,6,2,4,5,3,7,5,5,7,5,7,6,4,107,83,79,82,87,81,89,84,90,88,94,83,88140429_1147,1,subjects,1,1,15,3,20,20,1,0.244773,0.255437,6,0,1,0,20,2,0,0,22,12,6,98,44,108,24,114,12,98,44,108,24,114,12,99999,1,99999,10,0,0,10,20,0,20,0,-,-,-,7,7,7,7,1,3,4,5,7,6,6,7,7,2,3,4,6,3,2,6,7,2,7,7,5,7,7,7,7,7,4,7,5,7,7,7,102,82,88,91,75,93,89,92,69,82,94,80,90140429_1147,1,subjects,1,1,16,2,20,20,1,0.549727,0.209029,10,0,1,0,20,2,0,0,22,12,6,98,44,108,24,114,12,98,44,108,24,114,12,99999,1,99999,10,0,0,10,20,0,20,0,-,-,-,4,2,7,6,2,7,4,5,6,7,4,3,5,2,7,2,6,4,3,4,5,3,7,5,4,5,7,2,7,6,6,7,4,6,6,4,96,76,78,81,80,72,82,81,89,76,89,66,82140429_1147,1,subjects,1,1,17,1,80,80,1,0.908756,0.07945,18,0,1,0,80,2,0,0,22,12,6,98,44,108,24,114,12,98,44,108,24,114,12,99999,0,99999,40,40,0,40,80,0,80,0,-,-,-,2,6,7,6,2,5,5,2,7,5,3,6,6,4,3,2,7,3,3,6,5,5,4,6,2,5,7,5,7,6,3,7,4,2,4,6,99,86,85,83,82,86,90,81,77,87,86,71,90140429_1147,1,subjects,1,1,18,8,50,50,1,0.210758,0.753867,4,0,1,0,50,2,0,0,22,12,6,98,44,108,24,114,12,98,44,108,24,114,12,99999,1,99999,25,10,0,25,50,0,50,0,-,-,-,2,7,4,6,3,5,4,7,4,7,3,3,5,3,5,1,4,1,3,5,4,7,4,6,1,1,4,1,2,5,4,1,1,4,3,3,96,70,84,82,71,80,87,86,82,83,89,84,80140501_0927,1,subjects,1,1,1,5,100,100,1,0.895049,0.584102,13,1,0,0,100,1,0,0,22,12,6,98,44,108,24,114,12,98,44,108,24,114,12,99999,1,0,20,40,99999,20,100,100,0,0,0,0,0,3,6,6,7,1,7,5,6,6,7,3,5,7,1,1,7,7,3,6,6,3,6,4,6,3,4,5,4,7,7,5,7,2,7,7,7,88,83,86,88,80,92,89,81,89,86,87,88,91140501_0927,1,subjects,1,1,2,1,30,30,1,0.914118,0.027702,14,0,1,0,30,2,0,0,22,12,6,98,44,108,24,114,12,98,44,108,24,114,12,99999,1,99999,15,20,0,15,30,0,30,0,-,-,-,3,6,5,7,1,5,4,5,6,5,6,6,5,4,1,4,6,3,6,7,5,6,5,7,4,6,7,5,7,6,5,7,4,6,7,7,106,78,85,86,82,88,89,91,85,87,93,84,85140501_0927,1,subjects,1,1,3,6,20,20,1,0.635608,0.658648,8,0,1,0,20,2,0,0,22,12,6,98,44,108,24,114,12,98,44,108,24,114,12,99999,1,99999,10,40,0,10,20,0,20,0,-,-,-,5,6,7,7,4,6,5,4,6,6,6,7,7,3,5,4,6,6,6,7,4,6,6,7,5,6,7,6,7,7,5,7,4,7,7,7,91,87,87,90,85,86,92,89,83,88,93,84,91140501_0927,1,subjects,1,1,4,4,40,40,1,0.044675,0.159555,2,0,1,0,40,2,0,0,22,12,6,98,44,108,24,114,12,98,44,108,24,114,12,99999,0,99999,10,20,0,20,40,0,40,0,-,-,-,3,4,5,5,5,5,5,5,5,4,5,3,6,2,1,4,5,3,5,5,3,3,4,5,4,4,3,4,7,5,3,5,2,6,6,3,102,80,83,90,82,87,90,91,84,87,92,82,88140501_0927,1,subjects,1,1,5,4,100,100,1,0.782957,0.247415,11,1,0,0,100,1,0,0,22,12,6,98,44,108,24,114,12,98,44,108,24,114,12,99999,0,0,10,20,99999,20,100,100,0,0,-,-,-,1,5,7,7,1,1,2,4,6,7,1,1,6,5,2,6,4,4,5,6,2,6,1,7,1,5,6,2,7,6,3,7,4,7,7,2,106,75,79,72,84,83,83,56,79,79,88,71,85140501_0927,1,subjects,1,1,6,1,105,105,1,0.022157,0.175629,1,1,0,0,105,1,0,0,22,12,6,98,44,108,24,114,12,98,44,108,24,114,12,99999,1,0,15,20,99999,15,105,105,0,0,-,-,-,6,4,7,7,2,5,2,7,5,7,4,1,7,2,2,6,6,1,5,6,5,5,3,7,4,4,6,6,7,4,5,7,3,7,5,6,114,84,87,89,86,89,77,94,90,91,84,94,92140501_0927,1,subjects,1,1,7,3,80,80,1,0.790869,0.130412,12,0,1,0,80,2,0,0,22,12,6,98,44,108,24,114,12,98,44,108,24,114,12,99999,0,99999,35,40,0,40,80,0,80,0,-,-,-,4,5,7,7,1,4,1,3,4,6,6,3,5,2,5,1,6,3,6,6,2,5,2,5,2,6,5,3,6,5,2,6,4,2,7,2,109,76,86,84,84,83,92,89,84,84,82,76,85140501_0927,1,subjects,1,1,8,2,80,80,1,0.151499,0.190957,3,1,0,0,80,1,0,0,22,12,6,98,44,108,24,114,12,98,44,108,24,114,12,99999,0,0,20,40,99999,40,80,80,0,0,-,-,-,6,1,3,7,3,7,3,4,7,3,7,1,6,4,2,5,7,4,4,5,7,3,3,5,4,2,5,6,5,7,5,5,1,7,6,4,96,68,79,77,86,78,83,79,68,81,68,71,79140501_0927,1,subjects,1,1,9,5,40,40,1,0.387266,0.408675,4,0,1,0,40,2,0,0,22,12,6,98,44,108,24,114,12,98,44,108,24,114,12,99999,1,99999,20,40,0,20,40,0,40,0,-,-,-,2,7,6,7,1,6,5,2,5,6,6,5,6,2,2,2,5,5,7,7,6,7,6,7,2,5,6,3,6,7,2,7,3,6,7,2,102,81,82,87,77,81,82,89,86,79,88,81,85140501_0927,1,subjects,1,1,10,7,110,110,1,0.434546,0.908276,5,1,0,0,110,1,0,0,22,12,6,98,44,108,24,114,12,98,44,108,24,114,12,99999,1,0,10,0,99999,10,110,110,0,0,-,-,-,7,7,7,7,2,7,7,7,7,7,4,2,7,6,3,1,5,4,6,7,7,5,5,7,5,6,6,7,7,7,5,3,6,7,7,7,96,82,87,90,75,87,81,81,82,84,91,64,89140501_0927,1,subjects,1,1,11,6,110,110,1,0.629867,0.803549,7,1,0,0,110,1,0,0,22,12,6,98,44,108,24,114,12,98,44,108,24,114,12,99999,1,0,10,40,99999,10,110,110,0,0,-,-,-,4,6,2,6,3,5,4,6,7,4,7,1,2,6,3,3,6,3,3,6,4,5,4,7,2,6,6,3,6,7,2,6,1,3,4,6,97,78,88,88,82,87,89,88,83,88,86,81,69140501_0927,1,subjects,1,1,12,2,80,80,1,0.755589,0.082755,10,0,1,0,80,2,0,0,22,12,6,98,44,108,24,114,12,98,44,108,24,114,12,99999,0,99999,20,40,0,40,80,0,80,0,-,-,-,2,4,7,7,1,3,5,5,6,5,4,6,7,2,2,5,5,2,6,7,5,6,3,6,4,4,6,4,6,5,4,7,1,7,5,5,103,92,90,90,90,92,92,91,90,94,89,92,90140501_0927,1,subjects,1,1,13,3,80,80,1,0.732799,0.193105,9,1,0,0,80,1,0,0,22,12,6,98,44,108,24,114,12,98,44,108,24,114,12,99999,0,0,35,40,99999,40,80,80,0,0,-,-,-,3,5,7,7,1,6,4,4,6,5,6,4,7,5,1,3,6,2,5,6,4,4,5,7,3,5,6,5,7,6,6,5,2,7,5,4,83,73,85,83,80,84,81,84,81,79,86,72,84140501_0927,1,subjects,1,1,14,7,20,20,1,0.494519,0.676417,6,0,1,0,20,2,0,0,22,12,6,98,44,108,24,114,12,98,44,108,24,114,12,99999,1,99999,10,0,0,10,20,0,20,0,-,-,-,4,5,4,7,1,6,4,6,6,1,7,1,5,3,1,3,7,1,1,4,4,5,5,6,1,3,5,3,6,4,1,7,1,5,7,6,105,83,85,86,86,88,92,90,88,86,91,91,92150401_1409,1,subjects,1,1,1,5,120,120,1,0.02098322,0.187591579,3,1,0,0,120,1,0,0,22,12,6,98,44,108,24,114,12,98,44,108,24,114,12,99999,0,0,10,0,99999,0,120,120,0,0,0,0,0,1,4,7,7,1,3,2,1,7,7,2,1,7,3,3,1,6,5,5,7,3,5,3,7,1,2,6,5,7,6,3,7,7,7,4,4,108,90,90,90,85,86,93,92,91,87,95,88,89150401_1409,1,subjects,1,1,2,3,80,80,1,0.681830042,0.06360355,17,1,0,0,80,1,0,0,22,12,6,98,44,108,24,114,12,98,44,108,24,114,12,99999,1,0,40,50,99999,40,80,80,0,0,-,-,-,5,6,7,6,1,6,4,5,6,6,3,1,7,2,1,2,6,1,5,6,5,6,2,6,3,5,7,5,7,7,5,7,2,6,6,5,111,90,88,89,85,88,96,90,96,92,95,91,91150401_1409,1,subjects,1,1,3,10,60,60,1,0.991135121,0.538268687,24,0,1,0,60,2,0,0,22,12,6,98,44,108,24,114,12,98,44,108,24,114,12,99999,1,99999,30,40,0,30,60,0,60,0,-,-,-,5,6,6,6,3,6,3,4,5,6,5,6,4,4,4,2,4,2,5,5,4,4,5,6,3,3,5,5,5,5,3,4,3,5,5,5,111,92,93,92,91,88,93,93,88,92,95,91,91150401_1409,1,subjects,1,1,4,7,110,110,1,0.962055079,0.43278584,23,1,0,0,110,1,0,0,22,12,6,98,44,108,24,114,12,98,44,108,24,114,12,99999,1,0,10,0,99999,10,110,110,0,0,-,-,-,1,7,7,7,1,6,5,1,4,7,5,1,6,3,3,1,6,1,4,7,1,2,1,7,1,6,7,4,7,7,4,7,1,7,7,5,111,87,87,88,81,92,91,95,90,90,94,89,89150401_1409,1,subjects,1,1,5,10,90,90,1,0.861023015,0.517521933,21,1,0,0,90,1,0,0,22,12,6,98,44,108,24,114,12,98,44,108,24,114,12,99999,1,0,30,40,99999,30,90,90,0,0,-,-,-,5,2,1,7,3,7,6,7,5,6,4,4,6,3,5,5,7,2,5,5,7,4,4,7,5,4,6,6,7,6,2,7,2,7,7,5,108,87,78,89,85,84,86,90,86,84,83,82,73150401_1409,1,subjects,1,1,6,9,90,90,1,0.091268511,0.505599154,5,1,0,0,90,1,0,0,22,12,6,98,44,108,24,114,12,98,44,108,24,114,12,99999,0,0,20,30,99999,30,90,90,0,0,-,-,-,3,5,7,7,2,4,5,3,5,6,4,5,5,4,5,2,7,2,6,6,3,6,2,6,4,4,6,2,7,5,2,7,4,6,5,6,111,84,83,84,81,89,92,94,82,78,91,72,86150401_1409,1,subjects,1,1,7,11,60,60,1,0.291174507,0.831390626,13,1,0,0,60,1,0,0,22,12,6,98,44,108,24,114,12,98,44,108,24,114,12,99999,1,0,60,60,99999,60,60,60,0,0,-,-,-,1,6,7,7,2,6,3,6,4,3,2,6,7,1,5,2,5,2,2,6,1,5,3,7,2,5,5,4,6,7,4,6,4,7,7,3,113,85,94,86,85,92,93,92,95,91,94,88,93150401_1409,1,subjects,1,1,8,12,0,0,1,0.897171444,0.779144023,22,0,1,0,0,2,0,0,22,12,6,98,44,108,24,114,12,98,44,108,24,114,12,99999,0,99999,10,0,0,0,0,0,0,0,-,-,-,3,3,7,7,2,5,2,3,6,7,3,5,6,3,2,3,6,1,5,5,2,3,4,7,3,5,6,3,7,5,1,7,2,7,6,4,110,84,92,92,85,87,91,93,90,88,94,87,88150401_1409,1,subjects,1,1,9,3,80,80,1,0.099389756,0.143639521,8,0,1,0,80,2,0,0,22,12,6,98,44,108,24,114,12,98,44,108,24,114,12,99999,1,99999,40,50,0,40,80,0,80,0,-,-,-,2,6,6,6,2,5,3,5,5,3,6,2,6,1,3,2,5,1,5,6,1,5,3,7,2,5,6,5,6,4,3,7,2,6,7,5,108,81,88,85,87,86,92,89,84,78,88,67,81150401_1409,1,subjects,1,1,10,2,120,120,1,0.20304921,0.055703314,11,1,0,0,120,1,0,0,22,12,6,98,44,108,24,114,12,98,44,108,24,114,12,99999,0,0,10,0,99999,0,120,120,0,0,-,-,-,5,6,6,6,2,6,5,6,6,6,4,4,6,3,6,2,6,2,3,6,6,3,6,5,6,6,6,6,5,6,6,6,2,6,6,2,103,92,82,87,85,90,94,91,86,83,85,83,86150401_1409,1,subjects,1,1,11,5,0,0,1,0.66497219,0.205599191,16,0,1,0,0,2,0,0,22,12,6,98,44,108,24,114,12,98,44,108,24,114,12,99999,0,99999,10,0,0,0,0,0,0,0,-,-,-,5,7,6,7,1,6,1,6,7,7,3,5,5,7,4,6,7,2,6,6,5,7,6,7,6,1,7,7,7,5,3,5,2,6,7,1,116,95,91,92,85,93,93,92,92,87,94,92,96150401_1409,1,subjects,1,1,12,11,120,120,1,0.091514978,0.769945365,6,0,1,0,120,2,0,0,22,12,6,98,44,108,24,114,12,98,44,108,24,114,12,99999,1,99999,60,60,0,60,120,0,120,0,-,-,-,5,6,3,7,2,3,5,6,3,6,5,4,7,5,3,7,4,6,6,7,2,6,5,6,6,3,7,7,3,6,5,7,1,6,6,4,116,88,92,89,89,89,88,93,94,89,94,90,90150401_1409,1,subjects,1,1,13,1,20,20,1,0.48434313,0.036200506,14,0,1,0,20,2,0,0,22,12,6,98,44,108,24,114,12,98,44,108,24,114,12,99999,1,99999,10,40,0,10,20,0,20,0,-,-,-,3,7,5,7,4,7,6,1,4,7,5,3,6,5,3,5,6,2,6,6,1,6,2,6,2,5,6,2,5,7,4,6,2,6,7,5,111,87,91,89,85,87,94,90,92,90,93,84,80150401_1409,1,subjects,1,1,14,12,120,120,1,0.092229685,0.8672089,7,1,0,0,120,1,0,0,22,12,6,98,44,108,24,114,12,98,44,108,24,114,12,99999,0,0,10,0,99999,0,120,120,0,0,-,-,-,4,6,6,7,1,4,3,5,5,7,4,3,5,2,3,2,4,2,5,7,5,3,5,7,3,4,6,6,6,6,4,5,4,5,5,7,111,87,90,90,85,86,90,88,92,86,89,80,90150401_1409,1,subjects,1,1,15,1,110,110,1,0.010846146,0.007976183,1,1,0,0,110,1,0,0,22,12,6,98,44,108,24,114,12,98,44,108,24,114,12,99999,1,0,10,40,99999,10,110,110,0,0,-,-,-,3,6,7,7,3,6,5,5,7,7,4,5,7,2,4,1,7,4,4,7,3,6,4,6,4,2,7,2,7,7,4,7,2,7,7,5,118,91,90,91,89,85,90,87,94,88,93,91,91150401_1409,1,subjects,1,1,16,6,110,110,1,0.115745563,0.354984252,9,1,0,0,110,1,0,0,22,12,6,98,44,108,24,114,12,98,44,108,24,114,12,99999,1,0,10,14,99999,10,110,110,0,0,-,-,-,7,5,6,7,3,6,6,7,5,5,7,4,7,1,3,7,5,6,5,6,7,6,7,7,5,4,7,5,7,6,5,7,2,7,7,5,111,92,93,93,85,90,88,95,91,90,92,93,95150401_1409,1,subjects,1,1,17,8,80,80,1,0.503828156,0.471746261,15,1,0,0,80,1,0,0,22,12,6,98,44,108,24,114,12,98,44,108,24,114,12,99999,0,0,10,40,99999,40,80,80,0,0,-,-,-,5,1,7,7,1,5,7,1,5,5,5,3,6,2,1,2,6,3,4,6,1,5,2,7,3,4,6,5,7,2,4,7,1,7,1,4,108,87,83,83,81,87,87,92,82,79,76,76,85150401_1409,1,subjects,1,1,18,9,60,60,1,0.056847333,0.433125785,4,0,1,0,60,2,0,0,22,12,6,98,44,108,24,114,12,98,44,108,24,114,12,99999,0,99999,20,30,0,30,60,0,60,0,-,-,-,4,6,7,5,1,4,5,3,4,4,4,3,5,6,3,5,5,6,6,6,2,3,4,6,4,5,4,4,7,5,3,6,3,4,5,7,111,87,92,88,84,89,96,93,92,88,93,90,91150401_1409,1,subjects,1,1,19,6,20,20,1,0.152734625,0.22033031,10,0,1,0,20,2,0,0,22,12,6,98,44,108,24,114,12,98,44,108,24,114,12,99999,1,99999,10,14,0,10,20,0,20,0,-,-,-,4,6,6,7,1,7,4,4,6,6,5,2,6,4,3,4,5,1,5,6,5,5,3,7,4,5,6,6,6,5,4,6,2,5,6,7,111,92,93,94,90,95,90,95,92,91,94,93,95150401_1409,1,subjects,1,1,20,7,20,20,1,0.016154814,0.335679256,2,0,1,0,20,2,0,0,22,12,6,98,44,108,24,114,12,98,44,108,24,114,12,99999,1,99999,10,0,0,10,20,0,20,0,-,-,-,2,4,7,7,2,7,7,1,5,6,4,5,6,5,2,4,6,2,6,6,4,7,5,5,1,4,7,4,7,7,1,6,4,7,7,7,112,89,90,85,85,85,90,91,88,86,91,81,86150401_1409,1,subjects,1,1,21,8,80,80,1,0.839818611,0.40519249,20,0,1,0,80,2,0,0,22,12,6,98,44,108,24,114,12,98,44,108,24,114,12,99999,0,99999,10,40,0,40,80,0,80,0,-,-,-,1,6,6,6,2,6,3,3,5,6,4,3,6,2,2,2,6,1,4,6,1,4,3,6,2,2,7,5,6,6,3,6,1,5,6,4,102,92,91,88,81,87,92,92,85,86,94,84,85150401_1409,1,subjects,1,1,22,4,20,20,1,0.21380995,0.195386875,12,0,1,0,20,2,0,0,22,12,6,98,44,108,24,114,12,98,44,108,24,114,12,99999,1,99999,10,0,0,10,20,0,20,0,-,-,-,7,5,7,7,5,7,6,5,1,1,5,7,2,5,2,4,7,1,4,7,5,4,6,7,4,7,7,7,7,7,5,6,3,7,7,7,107,90,91,88,87,92,94,86,95,90,93,87,94150401_1409,1,subjects,1,1,23,2,0,0,1,0.703582156,0.115015387,18,0,1,0,0,2,0,0,22,12,6,98,44,108,24,114,12,98,44,108,24,114,12,99999,0,99999,10,0,0,0,0,0,0,0,-,-,-,3,6,5,6,1,4,3,6,5,5,6,2,4,5,2,3,7,2,6,7,4,5,3,6,4,4,6,5,6,6,4,6,2,5,7,6,108,87,79,87,81,88,90,87,81,68,84,81,80150401_1409,1,subjects,1,1,24,4,110,110,1,0.761256397,0.179987913,19,1,0,0,110,1,0,0,22,12,6,98,44,108,24,114,12,98,44,108,24,114,12,99999,1,0,10,0,99999,10,110,110,0,0,-,-,-,1,5,7,7,1,7,5,3,6,7,5,6,6,2,2,2,5,2,7,7,2,7,2,7,4,5,6,5,7,7,3,7,1,6,7,2,94,83,84,86,84,84,84,90,77,72,79,76,68140425_1519,1,subjects,2,1,1,1,20,20,1,0.212149,0.249694,3,0,1,0,20,2,0,0,22,12,6,98,44,108,24,114,12,98,44,108,24,114,12,99999,1,0,10,0,0,10,20,0,20,0,0,0,0,2,7,5,7,2,3,3,5,4,5,4,5,5,2,2,2,4,2,5,5,3,4,4,6,5,6,6,5,6,7,5,7,3,7,7,6,90,80,84,85,89,84,87,86,84,83,90,83,88140425_1519,1,subjects,2,1,2,3,0,0,1,0.187199,0.402094,1,0,0,1,0,3,0,0,22,12,6,98,44,108,24,114,12,98,44,108,24,114,12,99999,1,99999,40,40,0,-1,0,0,0,0,-,-,-,1,7,7,7,1,4,7,1,7,7,4,1,7,4,7,1,7,1,1,7,4,7,7,7,1,1,7,7,7,7,7,7,4,7,7,7,110,87,87,82,81,86,86,85,82,79,93,78,88140425_1519,1,subjects,2,1,3,3,80,80,1,0.198248,0.301567,2,1,0,0,80,1,0,0,22,12,6,98,44,108,24,114,12,98,44,108,24,114,12,99999,1,0,40,40,99999,40,80,80,0,0,-,-,-,6,5,5,7,1,3,3,4,7,7,2,5,7,1,1,2,6,2,6,7,5,5,2,7,3,4,7,5,6,4,3,7,1,4,2,7,113,85,82,87,85,88,92,78,93,78,90,92,81140425_1519,1,subjects,2,1,4,5,34,34,1,0.29542,0.858459,6,0,1,0,34,2,0,0,22,12,6,98,44,108,24,114,12,98,44,108,24,114,12,99999,0,0,15,17,0,17,34,0,34,0,-,-,-,5,7,3,7,4,7,5,4,5,4,6,5,7,3,5,4,3,7,3,5,5,5,4,4,3,6,4,4,5,6,4,6,3,4,6,5,95,84,86,85,80,83,88,89,79,83,88,85,86140425_1519,1,subjects,2,1,5,2,110,110,1,0.275365,0.129778,5,1,0,0,110,1,0,0,22,12,6,98,44,108,24,114,12,98,44,108,24,114,12,99999,1,0,10,3,99999,10,110,110,0,0,-,-,-,6,7,5,7,1,6,6,2,6,7,4,7,7,1,7,6,7,2,5,7,1,5,2,7,2,2,7,6,7,7,6,7,2,7,7,1,90,69,80,89,76,83,87,85,77,74,87,76,85140425_1519,1,subjects,2,1,6,4,120,120,1,0.721968,0.328953,14,1,0,0,120,1,0,0,22,12,6,98,44,108,24,114,12,98,44,108,24,114,12,99999,0,0,10,0,99999,0,120,120,0,0,-,-,-,3,6,6,7,2,7,6,1,5,6,5,4,6,1,5,2,6,2,3,7,1,4,1,7,2,6,6,6,7,7,4,6,1,7,6,5,75,81,84,89,78,85,85,88,83,81,87,81,85140425_1519,1,subjects,2,1,7,5,103,103,1,0.345647,0.953314,8,1,0,0,103,1,0,0,22,12,6,98,44,108,24,114,12,98,44,108,24,114,12,99999,0,0,15,17,99999,17,103,103,0,0,-,-,-,4,5,5,7,3,6,3,4,6,4,7,4,6,5,3,4,5,4,4,5,6,5,5,4,4,4,5,5,6,6,4,6,4,5,6,6,106,82,75,83,84,77,87,85,79,76,87,80,80140425_1519,1,subjects,2,1,8,5,0,0,1,0.529497,0.938213,10,0,0,1,0,3,0,0,22,12,6,98,44,108,24,114,12,98,44,108,24,114,12,99999,0,99999,15,17,0,-1,0,0,0,0,-,-,-,1,6,6,7,1,1,1,1,7,7,1,1,7,1,2,1,1,1,6,5,1,4,1,7,1,1,7,3,7,7,5,7,1,7,4,1,103,82,65,79,78,70,79,57,63,55,79,59,79140425_1519,1,subjects,2,1,9,4,0,0,1,0.505829,0.465822,9,0,1,0,0,2,0,0,22,12,6,98,44,108,24,114,12,98,44,108,24,114,12,99999,0,0,10,0,0,0,0,0,0,0,-,-,-,5,7,7,7,4,5,4,6,5,7,5,4,7,1,1,5,5,2,6,6,4,7,1,6,4,6,6,7,7,5,3,6,2,6,6,4,90,82,93,83,82,84,90,94,92,88,94,89,88140425_1519,1,subjects,2,1,10,2,20,20,1,0.660679,0.258547,12,0,1,0,20,2,0,0,22,12,6,98,44,108,24,114,12,98,44,108,24,114,12,99999,1,0,10,3,0,10,20,0,20,0,-,-,-,6,7,4,7,1,7,2,4,5,4,6,2,2,6,3,2,6,2,5,7,1,5,2,4,2,2,7,6,7,5,5,6,2,5,7,3,88,68,81,85,67,85,84,76,71,71,74,73,75140425_1519,1,subjects,2,1,11,1,110,110,1,0.552438,0.124052,11,1,0,0,110,1,0,0,22,12,6,98,44,108,24,114,12,98,44,108,24,114,12,99999,1,0,10,0,99999,10,110,110,0,0,-,-,-,3,7,5,7,1,4,5,4,5,6,3,4,4,5,1,5,6,3,3,4,7,5,4,6,3,4,7,5,4,5,4,5,5,7,6,6,102,79,89,88,84,89,83,84,83,86,91,67,86140425_1519,1,subjects,2,1,12,2,0,0,1,0.318507,0.338047,7,0,0,1,0,3,0,0,22,12,6,98,44,108,24,114,12,98,44,108,24,114,12,99999,1,99999,10,3,0,-1,0,0,0,0,-,-,-,2,2,6,7,2,6,5,7,4,5,6,4,7,4,6,6,6,5,4,6,7,7,5,6,4,3,7,6,6,6,5,5,5,2,5,7,68,84,88,93,91,89,92,95,95,92,94,90,93140425_1519,1,subjects,2,1,13,1,0,0,1,0.707957,0.190607,13,0,0,1,0,3,0,0,22,12,6,98,44,108,24,114,12,98,44,108,24,114,12,99999,1,99999,10,0,0,-1,0,0,0,0,-,-,-,1,7,6,7,4,7,2,1,7,5,3,6,4,5,2,1,7,1,7,7,3,6,5,6,1,3,7,4,6,7,4,6,5,7,7,2,111,85,86,85,82,87,95,84,91,83,91,86,93140425_1519,1,subjects,2,1,14,4,0,0,1,0.229598,0.438158,4,0,0,1,0,3,0,0,22,12,6,98,44,108,24,114,12,98,44,108,24,114,12,99999,0,99999,10,0,0,-1,0,0,0,0,-,-,-,6,7,5,7,2,5,5,4,7,4,6,5,5,3,2,6,3,3,6,4,6,5,5,6,4,6,6,5,4,5,5,6,4,6,5,6,97,74,89,84,78,82,89,85,78,71,86,18,42140425_1519,1,subjects,2,1,15,3,80,80,1,0.766614,0.276727,15,0,1,0,80,2,0,0,22,12,6,98,44,108,24,114,12,98,44,108,24,114,12,99999,1,0,40,40,0,40,80,0,80,0,-,-,-,5,3,2,7,1,3,2,1,7,4,7,1,4,1,4,1,7,1,3,5,4,6,1,4,2,2,7,7,1,4,2,6,3,6,4,4,103,86,89,88,79,91,94,85,88,85,90,83,90140425_1709,1,subjects,2,1,1,2,80,80,1,0.135617,0.145244,6,0,1,0,80,2,0,0,22,12,6,98,44,108,24,114,12,98,44,108,24,114,12,99999,1,0,40,40,0,40,80,0,80,0,0,0,0,2,6,7,7,5,5,4,6,6,5,6,7,6,2,3,6,7,5,5,6,2,7,5,4,6,4,4,7,7,6,3,6,2,7,5,6,110,90,94,92,93,94,95,94,95,92,98,94,96140425_1709,1,subjects,2,1,2,1,24,24,1,0.943272,0.118302,21,0,1,0,24,2,0,0,22,12,6,98,44,108,24,114,12,98,44,108,24,114,12,99999,1,0,12,12,0,12,24,0,24,0,-,-,-,3,7,4,7,3,6,5,3,6,6,5,1,6,5,5,6,6,5,4,6,5,5,4,7,3,5,7,4,6,6,3,7,5,6,6,6,93,90,87,83,88,82,80,84,83,90,85,85,91140425_1709,1,subjects,2,1,3,7,80,80,1,0.112489,0.910456,5,1,0,0,80,1,0,0,22,12,6,98,44,108,24,114,12,98,44,108,24,114,12,99999,1,0,40,40,99999,40,80,80,0,0,-,-,-,4,2,7,7,1,4,2,4,6,7,3,6,7,1,3,4,6,1,3,7,3,3,3,7,2,4,6,6,6,5,3,7,1,7,4,4,99,87,91,88,84,94,97,93,93,92,90,92,92140425_1709,1,subjects,2,1,4,1,108,108,1,0.914649,0.128047,20,1,0,0,108,1,0,0,22,12,6,98,44,108,24,114,12,98,44,108,24,114,12,99999,1,0,12,12,99999,12,108,108,0,0,-,-,-,3,6,5,7,1,7,3,6,6,6,3,7,7,2,6,2,6,2,6,6,2,5,4,7,2,1,7,6,7,5,5,7,1,5,6,3,110,90,89,87,80,87,95,89,92,87,89,83,92140425_1709,1,subjects,2,1,5,2,80,80,1,0.56972,0.143609,14,1,0,0,80,1,0,0,22,12,6,98,44,108,24,114,12,98,44,108,24,114,12,99999,1,0,40,40,99999,40,80,80,0,0,-,-,-,7,4,4,7,2,6,4,6,4,7,1,5,6,4,3,7,7,4,2,4,7,4,5,7,7,3,5,5,7,2,5,7,1,5,1,6,103,83,91,87,85,90,94,89,83,78,88,90,87140425_1709,1,subjects,2,1,6,6,40,40,1,0.751469,0.939857,18,0,1,0,40,2,0,0,22,12,6,98,44,108,24,114,12,98,44,108,24,114,12,99999,1,0,20,9,0,20,40,0,40,0,-,-,-,5,6,6,7,2,6,4,4,5,6,3,6,6,3,6,5,4,3,5,5,6,5,4,5,3,5,5,5,4,5,4,6,3,6,6,5,101,84,90,83,83,91,87,88,89,87,88,86,87140425_1709,1,subjects,2,1,7,6,0,0,1,0.29029,0.508895,10,0,0,1,0,3,0,0,22,12,6,98,44,108,24,114,12,98,44,108,24,114,12,99999,1,99999,20,9,0,-1,0,0,0,0,-,-,-,1,6,5,7,1,6,6,2,6,7,1,1,6,3,1,2,6,6,5,7,4,6,2,7,2,3,7,6,7,6,2,7,1,6,6,6,107,86,92,86,88,89,92,92,89,87,93,88,89140425_1709,1,subjects,2,1,8,5,0,0,1,0.835042,0.408179,19,0,0,1,0,3,0,0,22,12,6,98,44,108,24,114,12,98,44,108,24,114,12,99999,1,99999,10,0,0,-1,0,0,0,0,-,-,-,2,6,6,7,3,6,4,2,7,5,5,1,4,6,5,1,5,4,6,6,6,6,5,5,4,6,6,6,7,5,6,6,2,6,6,7,94,83,87,82,76,80,76,83,82,70,79,81,68140425_1709,1,subjects,2,1,9,4,110,110,1,0.34355,0.702942,11,1,0,0,110,1,0,0,22,12,6,98,44,108,24,114,12,98,44,108,24,114,12,99999,1,0,10,0,99999,10,110,110,0,0,-,-,-,1,5,6,7,1,7,2,5,5,1,7,3,4,4,4,1,7,1,2,5,7,7,1,3,1,4,3,5,7,7,2,6,6,2,7,7,116,91,90,90,92,88,89,91,92,89,94,89,92140425_1709,1,subjects,2,1,10,1,0,0,1,0.098526,0.039515,4,0,0,1,0,3,0,0,22,12,6,98,44,108,24,114,12,98,44,108,24,114,12,99999,1,99999,12,12,0,-1,0,0,0,0,-,-,-,4,7,6,7,2,5,2,1,6,7,6,4,7,1,5,2,5,1,7,7,2,3,1,6,2,5,7,6,6,6,2,7,3,7,7,4,101,87,89,87,80,86,89,87,74,83,90,70,80140425_1709,1,subjects,2,1,11,2,0,0,1,0.000116,0.312769,1,0,0,1,0,3,0,0,22,12,6,98,44,108,24,114,12,98,44,108,24,114,12,99999,1,99999,40,40,0,-1,0,0,0,0,-,-,-,7,3,7,7,3,4,7,3,5,7,4,4,5,1,5,4,4,3,7,7,1,1,1,7,2,7,6,7,7,7,4,3,7,7,7,7,116,83,88,89,85,87,95,93,90,88,93,89,94140425_1709,1,subjects,2,1,12,4,20,20,1,0.049768,0.793891,3,0,1,0,20,2,0,0,22,12,6,98,44,108,24,114,12,98,44,108,24,114,12,99999,1,0,10,0,0,10,20,0,20,0,-,-,-,4,4,4,4,4,4,4,4,4,4,4,4,4,4,4,4,4,4,4,4,4,4,4,4,4,4,4,4,4,4,4,4,4,4,4,4,111,85,89,93,94,93,96,95,96,95,99,95,98140425_1709,1,subjects,2,1,13,7,80,80,1,0.267861,0.963675,9,0,1,0,80,2,0,0,22,12,6,98,44,108,24,114,12,98,44,108,24,114,12,99999,1,0,40,40,0,40,80,0,80,0,-,-,-,5,5,7,7,1,4,5,3,6,7,1,4,7,1,1,4,4,4,6,6,5,3,4,7,5,5,6,6,7,5,1,7,1,7,7,7,102,83,90,90,78,95,93,88,87,83,93,89,81140425_1709,1,subjects,2,1,14,5,110,110,1,0.046352,0.722468,2,1,0,0,110,1,0,0,22,12,6,98,44,108,24,114,12,98,44,108,24,114,12,99999,1,0,10,0,99999,10,110,110,0,0,-,-,-,7,7,6,7,2,6,3,3,5,2,6,3,6,4,2,1,6,3,5,5,5,3,5,6,3,5,5,6,7,3,5,6,5,5,5,7,103,81,80,77,76,85,76,87,78,68,75,69,84140425_1709,1,subjects,2,1,15,6,100,100,1,0.176301,0.849,8,1,0,0,100,1,0,0,22,12,6,98,44,108,24,114,12,98,44,108,24,114,12,99999,1,0,20,9,99999,20,100,100,0,0,-,-,-,1,7,1,6,2,4,4,2,7,4,7,1,6,3,3,1,7,4,6,7,1,7,4,6,1,4,7,6,6,6,3,7,1,7,7,7,108,88,89,92,82,86,93,87,80,81,85,88,76140425_1709,1,subjects,2,1,16,3,0,0,1,0.621551,0.36801,16,0,0,1,0,3,0,0,22,12,6,98,44,108,24,114,12,98,44,108,24,114,12,99999,1,99999,10,0,0,-1,0,0,0,0,-,-,-,1,3,7,7,2,6,2,4,7,7,3,2,4,4,1,3,4,1,3,7,3,5,3,7,1,4,7,6,7,7,3,5,4,5,6,7,99,85,86,83,88,89,88,86,82,83,89,69,85140425_1709,1,subjects,2,1,17,5,20,20,1,0.605605,0.841569,15,0,1,0,20,2,0,0,22,12,6,98,44,108,24,114,12,98,44,108,24,114,12,99999,1,0,10,0,0,10,20,0,20,0,-,-,-,4,7,6,7,2,4,3,6,3,6,2,3,7,2,5,7,7,1,6,6,4,5,4,7,4,5,7,7,7,5,3,7,4,7,7,7,110,85,91,90,83,89,96,92,87,85,90,84,85140425_1709,1,subjects,2,1,18,3,20,20,1,0.417058,0.498605,12,0,1,0,20,2,0,0,22,12,6,98,44,108,24,114,12,98,44,108,24,114,12,99999,1,0,10,0,0,10,20,0,20,0,-,-,-,1,7,7,7,7,7,7,7,7,7,1,1,7,1,1,7,7,1,5,5,7,5,1,7,7,7,7,4,5,7,7,7,5,7,7,5,116,95,86,93,96,92,96,88,91,94,90,93,96140425_1709,1,subjects,2,1,19,7,0,0,1,0.551195,0.632643,13,0,0,1,0,3,0,0,22,12,6,98,44,108,24,114,12,98,44,108,24,114,12,99999,1,99999,40,40,0,-1,0,0,0,0,-,-,-,6,7,5,7,1,6,1,7,6,3,7,1,7,1,6,7,7,3,5,7,3,5,1,7,5,7,7,4,7,7,5,7,2,7,7,4,110,85,89,80,82,90,90,81,84,78,84,81,87140425_1709,1,subjects,2,1,20,4,0,0,1,0.139726,0.376676,7,0,0,1,0,3,0,0,22,12,6,98,44,108,24,114,12,98,44,108,24,114,12,99999,1,99999,10,0,0,-1,0,0,0,0,-,-,-,6,7,5,6,5,6,6,5,3,4,5,6,2,5,2,4,2,2,5,4,7,4,6,6,5,6,4,6,7,6,5,6,3,5,4,7,103,87,94,87,83,89,92,89,89,85,86,88,93140425_1709,1,subjects,2,1,21,3,110,110,1,0.694985,0.44424,17,1,0,0,110,1,0,0,22,12,6,98,44,108,24,114,12,98,44,108,24,114,12,99999,1,0,10,0,99999,10,110,110,0,0,-,-,-,4,7,6,7,3,7,3,5,6,6,4,5,6,3,5,5,5,4,5,7,3,6,5,5,4,4,7,7,6,5,3,7,4,7,7,5,104,84,95,79,85,90,84,86,80,82,89,76,72140501_1052,1,subjects,2,1,1,4,0,0,1,0.879103,0.62219,13,0,0,1,0,3,0,0,22,12,6,98,44,108,24,114,12,98,44,108,24,114,12,99999,1,99999,15,1,0,-1,0,0,0,0,0,0,0,3,5,7,7,2,5,6,5,6,3,5,6,7,6,2,6,6,5,5,5,6,5,3,7,3,5,6,5,7,7,3,7,6,5,6,6,109,88,90,90,83,87,93,94,93,76,91,88,93140501_1052,1,subjects,2,1,2,6,80,80,1,0.240036,0.9711,3,0,1,0,80,2,0,0,22,12,6,98,44,108,24,114,12,98,44,108,24,114,12,99999,1,0,40,40,0,40,80,0,80,0,-,-,-,3,7,5,7,5,6,7,2,6,6,7,3,6,6,6,5,6,7,7,7,4,6,4,6,2,6,7,4,6,7,6,7,4,6,7,5,107,92,89,91,87,89,98,95,93,95,95,100,97140501_1052,1,subjects,2,1,3,3,110,110,1,0.194623,0.269673,2,1,0,0,110,1,0,0,22,12,6,98,44,108,24,114,12,98,44,108,24,114,12,99999,1,0,10,5,99999,10,110,110,0,0,-,-,-,2,4,3,6,1,6,5,3,3,5,6,4,6,2,3,4,6,2,5,6,3,6,4,5,6,5,5,6,4,5,4,6,4,6,6,4,94,85,83,79,70,83,84,69,73,68,83,74,85140501_1052,1,subjects,2,1,4,1,20,20,1,0.337751,0.002866,6,0,1,0,20,2,0,0,22,12,6,98,44,108,24,114,12,98,44,108,24,114,12,99999,1,0,10,0,0,10,20,0,20,0,-,-,-,7,3,4,6,4,5,7,4,6,6,4,3,7,1,2,5,7,3,6,3,7,7,5,3,3,3,6,7,5,6,3,6,4,6,5,4,108,89,88,94,83,90,95,92,96,95,94,90,91140501_1052,1,subjects,2,1,5,3,0,0,1,0.729362,0.380992,10,0,0,1,0,3,0,0,22,12,6,98,44,108,24,114,12,98,44,108,24,114,12,99999,1,99999,10,5,0,-1,0,0,0,0,-,-,-,3,7,4,7,1,7,5,2,6,3,6,4,7,2,4,3,6,2,6,6,3,3,2,7,3,3,7,2,5,6,3,6,3,6,6,6,108,86,85,85,82,89,91,87,82,82,88,82,75140501_1052,1,subjects,2,1,6,4,105,105,1,0.317186,0.468975,5,1,0,0,105,1,0,0,22,12,6,98,44,108,24,114,12,98,44,108,24,114,12,99999,1,0,15,1,99999,15,105,105,0,0,-,-,-,5,6,4,6,3,7,4,6,5,4,6,3,7,2,5,3,5,4,6,5,4,5,2,7,4,4,4,6,6,6,5,6,3,6,6,6,101,82,81,85,82,88,90,87,85,84,90,79,87140501_1052,1,subjects,2,1,7,2,80,80,1,0.973387,0.136627,18,0,1,0,80,2,0,0,22,12,6,98,44,108,24,114,12,98,44,108,24,114,12,99999,1,0,40,40,0,40,80,0,80,0,-,-,-,5,6,7,7,4,7,1,7,7,7,5,4,5,4,2,5,7,2,6,3,5,6,2,6,6,3,4,6,7,7,5,6,2,6,7,4,107,88,88,89,80,93,86,88,84,81,91,82,91140501_1052,1,subjects,2,1,8,1,0,0,1,0.940197,0.029232,16,0,0,1,0,3,0,0,22,12,6,98,44,108,24,114,12,98,44,108,24,114,12,99999,1,99999,10,0,0,-1,0,0,0,0,-,-,-,4,7,7,7,3,5,5,4,7,7,4,1,5,1,5,7,7,1,7,7,4,5,2,6,1,6,7,7,7,7,6,7,4,7,7,7,114,91,92,91,92,94,94,95,93,95,97,90,95140501_1052,1,subjects,2,1,9,6,0,0,1,0.060639,0.941728,1,0,0,1,0,3,0,0,22,12,6,98,44,108,24,114,12,98,44,108,24,114,12,99999,1,99999,40,40,0,-1,0,0,0,0,-,-,-,2,6,6,6,2,6,2,4,4,2,5,1,3,4,2,4,4,4,3,6,5,6,2,5,2,5,5,2,7,3,6,5,2,6,6,6,104,87,88,86,81,84,82,82,79,77,87,56,80140501_1052,1,subjects,2,1,10,2,80,80,1,0.867952,0.147875,11,1,0,0,80,1,0,0,22,12,6,98,44,108,24,114,12,98,44,108,24,114,12,99999,1,0,40,40,99999,40,80,80,0,0,-,-,-,3,7,7,7,2,6,4,4,5,7,6,5,6,3,5,3,6,2,6,6,4,4,3,7,4,4,6,4,7,5,4,7,2,5,5,5,101,81,89,86,84,90,89,89,80,85,87,86,85140501_1052,1,subjects,2,1,11,2,0,0,1,0.305401,0.173345,4,0,0,1,0,3,0,0,22,12,6,98,44,108,24,114,12,98,44,108,24,114,12,99999,1,99999,40,40,0,-1,0,0,0,0,-,-,-,7,7,5,7,1,4,5,7,7,1,7,4,7,1,2,5,7,6,1,7,5,7,1,5,1,7,4,4,7,6,2,7,1,7,7,3,101,90,90,91,88,86,87,94,83,83,92,84,90140501_1052,1,subjects,2,1,12,5,0,0,1,0.363617,0.797168,7,0,0,1,0,3,0,0,22,12,6,98,44,108,24,114,12,98,44,108,24,114,12,99999,1,99999,12,10,0,-1,0,0,0,0,-,-,-,3,6,6,1,6,5,6,3,6,7,2,4,6,1,4,2,6,5,7,7,3,6,2,6,3,5,6,3,7,6,5,7,3,6,5,5,108,87,88,94,84,89,93,91,95,87,96,89,90140501_1052,1,subjects,2,1,13,3,20,20,1,0.565213,0.285634,9,0,1,0,20,2,0,0,22,12,6,98,44,108,24,114,12,98,44,108,24,114,12,99999,1,0,10,5,0,10,20,0,20,0,-,-,-,4,7,5,6,6,6,6,6,6,6,6,1,6,3,2,6,6,3,6,6,5,6,6,6,5,6,6,6,6,6,6,6,3,6,6,6,101,82,88,91,83,87,94,88,85,86,90,84,93140501_1052,1,subjects,2,1,14,1,110,110,1,0.964168,0.116995,17,1,0,0,110,1,0,0,22,12,6,98,44,108,24,114,12,98,44,108,24,114,12,99999,1,0,10,0,99999,10,110,110,0,0,-,-,-,2,7,7,7,1,7,4,2,7,7,7,4,7,3,7,2,6,1,5,7,6,7,2,7,4,4,6,1,7,7,5,7,2,7,7,5,106,77,81,85,87,89,87,89,78,78,93,69,73140501_1052,1,subjects,2,1,15,5,24,24,1,0.891445,0.345356,15,0,1,0,24,2,0,0,22,12,6,98,44,108,24,114,12,98,44,108,24,114,12,99999,1,0,12,10,0,12,24,0,24,0,-,-,-,3,7,6,7,2,7,4,4,6,7,7,5,7,3,7,2,5,1,7,5,5,5,6,7,4,6,6,7,7,7,5,6,2,5,7,5,108,91,90,93,90,92,93,92,91,90,96,87,89140501_1052,1,subjects,2,1,16,4,30,30,1,0.871709,0.330964,12,0,1,0,30,2,0,0,22,12,6,98,44,108,24,114,12,98,44,108,24,114,12,99999,1,0,15,1,0,15,30,0,30,0,-,-,-,3,6,7,7,2,6,6,4,6,5,6,3,6,2,4,2,7,4,7,6,2,5,3,7,5,6,3,4,7,7,2,7,3,6,6,5,101,83,87,92,89,90,91,94,86,76,89,79,90140501_1052,1,subjects,2,1,17,5,108,108,1,0.885799,0.580564,14,1,0,0,108,1,0,0,22,12,6,98,44,108,24,114,12,98,44,108,24,114,12,99999,1,0,12,10,99999,12,108,108,0,0,-,-,-,6,7,6,7,5,6,6,3,5,7,7,7,6,5,4,1,7,1,6,7,3,2,2,7,4,6,7,7,7,7,5,6,4,5,7,7,94,89,87,84,88,88,82,88,81,77,91,73,80140501_1052,1,subjects,2,1,18,6,80,80,1,0.457273,0.710725,8,1,0,0,80,1,0,0,22,12,6,98,44,108,24,114,12,98,44,108,24,114,12,99999,1,0,40,40,99999,40,80,80,0,0,-,-,-,2,7,6,6,2,6,7,1,3,5,4,6,6,2,5,1,7,4,7,7,2,6,4,5,1,6,7,3,7,7,6,7,1,7,7,7,106,88,83,85,84,86,86,83,90,86,88,87,83140501_1213,1,subjects,2,1,1,4,20,20,1,0.111279,0.463658,3,0,1,0,20,2,0,0,22,12,6,98,44,108,24,114,12,98,44,108,24,114,12,99999,1,0,10,0,0,10,20,0,20,0,0,0,0,6,6,4,7,5,7,6,5,6,7,5,6,5,4,4,5,7,3,6,5,7,6,3,6,4,6,5,6,6,6,6,7,5,5,6,6,109,83,93,90,91,92,89,90,87,87,92,90,94140501_1213,1,subjects,2,1,2,6,20,20,1,0.622489,0.826947,15,0,1,0,20,2,0,0,22,12,6,98,44,108,24,114,12,98,44,108,24,114,12,99999,1,0,10,0,0,10,20,0,20,0,-,-,-,5,7,4,7,1,6,1,7,5,3,6,5,5,6,2,6,6,1,6,7,7,3,6,7,6,7,2,6,7,7,3,6,2,6,7,6,107,85,89,91,74,89,96,92,89,89,95,87,92140501_1213,1,subjects,2,1,3,4,110,110,1,0.308516,0.587701,8,1,0,0,110,1,0,0,22,12,6,98,44,108,24,114,12,98,44,108,24,114,12,99999,1,0,10,0,99999,10,110,110,0,0,-,-,-,3,6,7,7,1,3,5,2,6,6,6,3,6,5,5,2,7,2,6,6,2,3,6,5,5,4,6,3,7,5,4,6,4,6,5,5,106,86,87,85,82,87,92,86,91,84,91,88,91140501_1213,1,subjects,2,1,4,2,0,0,1,0.268871,0.488126,7,0,0,1,0,3,0,0,22,12,6,98,44,108,24,114,12,98,44,108,24,114,12,99999,0,99999,40,40,0,-1,0,0,0,0,-,-,-,7,7,7,7,3,6,6,7,7,6,7,7,4,5,5,7,7,5,5,6,5,6,6,7,5,6,7,6,7,5,5,5,7,5,5,7,105,88,86,85,81,87,90,86,86,89,89,73,83140501_1213,1,subjects,2,1,5,5,110,110,1,0.58277,0.739283,14,1,0,0,110,1,0,0,22,12,6,98,44,108,24,114,12,98,44,108,24,114,12,99999,1,0,10,10,99999,10,110,110,0,0,-,-,-,5,7,7,7,2,7,6,4,6,6,4,2,5,5,3,7,7,1,6,6,2,5,5,6,5,5,6,6,6,6,3,5,1,6,6,7,101,86,92,90,88,89,90,96,92,88,96,91,89140501_1213,1,subjects,2,1,6,3,20,20,1,0.31543,0.376128,9,0,1,0,20,2,0,0,22,12,6,98,44,108,24,114,12,98,44,108,24,114,12,99999,1,0,10,0,0,10,20,0,20,0,-,-,-,3,6,6,7,5,7,4,5,4,4,7,5,7,1,5,4,7,4,5,7,3,5,5,7,4,7,4,6,7,6,4,7,2,7,7,5,102,84,87,84,77,92,88,82,88,87,87,82,84140501_1213,1,subjects,2,1,7,3,0,0,1,0.134874,0.549684,4,0,0,1,0,3,0,0,22,12,6,98,44,108,24,114,12,98,44,108,24,114,12,99999,1,99999,10,0,0,-1,0,0,0,0,-,-,-,2,7,7,7,3,4,7,3,5,7,1,5,3,2,2,2,6,1,5,6,4,6,2,7,6,7,3,6,7,7,1,6,4,7,5,3,113,86,81,84,79,87,88,90,82,86,89,71,85140501_1213,1,subjects,2,1,8,1,0,0,1,0.691876,0.436277,16,0,0,1,0,3,0,0,22,12,6,98,44,108,24,114,12,98,44,108,24,114,12,99999,1,99999,10,0,0,-1,0,0,0,0,-,-,-,2,1,5,1,6,2,3,3,3,1,1,4,1,3,1,2,4,5,4,2,4,1,4,2,4,2,3,6,4,1,3,2,3,3,1,3,94,68,81,87,67,88,84,86,76,63,58,83,80140501_1213,1,subjects,2,1,9,5,20,20,1,0.169477,0.475727,6,0,1,0,20,2,0,0,22,12,6,98,44,108,24,114,12,98,44,108,24,114,12,99999,1,0,10,10,0,10,20,0,20,0,-,-,-,2,6,7,6,3,4,5,2,5,7,4,2,6,4,3,2,5,3,5,6,4,2,4,7,2,4,5,5,6,7,4,6,4,7,5,5,83,87,90,86,88,93,91,91,88,88,92,84,86140501_1213,1,subjects,2,1,10,6,0,0,1,0.384331,0.981699,10,0,0,1,0,3,0,0,22,12,6,98,44,108,24,114,12,98,44,108,24,114,12,99999,1,99999,10,0,0,-1,0,0,0,0,-,-,-,4,6,5,7,5,7,6,3,4,6,7,1,7,5,4,4,6,2,5,6,2,5,3,6,3,4,5,5,6,6,6,4,3,6,6,6,97,81,89,85,82,92,88,91,89,84,90,83,87140501_1213,1,subjects,2,1,11,4,0,0,1,0.529182,0.853905,13,0,0,1,0,3,0,0,22,12,6,98,44,108,24,114,12,98,44,108,24,114,12,99999,1,99999,10,0,0,-1,0,0,0,0,-,-,-,2,3,7,7,2,7,4,1,7,7,4,3,7,2,1,1,7,2,1,7,2,6,3,7,1,4,6,5,7,7,4,7,3,7,7,7,104,80,85,88,86,89,93,91,84,86,91,87,91140501_1213,1,subjects,2,1,12,3,110,110,1,0.106462,0.498014,2,1,0,0,110,1,0,0,22,12,6,98,44,108,24,114,12,98,44,108,24,114,12,99999,1,0,10,0,99999,10,110,110,0,0,-,-,-,4,4,7,7,1,7,6,1,6,7,7,7,7,1,5,1,5,5,5,6,6,5,7,7,6,5,7,7,7,7,6,7,1,5,5,5,94,78,88,73,75,88,86,90,84,64,86,74,74140501_1213,1,subjects,2,1,13,1,110,110,1,0.490158,0.162494,11,1,0,0,110,1,0,0,22,12,6,98,44,108,24,114,12,98,44,108,24,114,12,99999,1,0,10,0,99999,10,110,110,0,0,-,-,-,3,7,5,7,4,6,5,3,2,4,6,1,7,1,6,5,7,4,4,2,4,1,5,3,4,2,5,4,7,7,4,6,4,7,7,6,111,80,83,86,71,89,87,88,90,87,91,88,91140501_1213,1,subjects,2,1,14,5,0,0,1,0.05221,0.944551,1,0,0,1,0,3,0,0,22,12,6,98,44,108,24,114,12,98,44,108,24,114,12,99999,1,99999,10,10,0,-1,0,0,0,0,-,-,-,5,7,6,6,3,6,6,6,5,7,5,6,4,6,5,6,4,4,6,5,4,6,2,6,6,6,6,6,6,6,4,6,6,6,6,5,111,92,90,92,89,92,94,89,87,94,93,90,91140501_1213,1,subjects,2,1,15,1,20,20,1,0.954507,0.110536,18,0,1,0,20,2,0,0,22,12,6,98,44,108,24,114,12,98,44,108,24,114,12,99999,1,0,10,0,0,10,20,0,20,0,-,-,-,4,6,5,7,1,7,6,3,5,6,5,4,5,6,3,5,6,1,5,6,7,5,4,6,4,6,6,6,6,6,6,7,1,4,4,7,106,84,88,89,78,90,95,91,89,88,94,86,89140501_1213,1,subjects,2,1,16,6,110,110,1,0.845431,0.762947,17,1,0,0,110,1,0,0,22,12,6,98,44,108,24,114,12,98,44,108,24,114,12,99999,1,0,10,0,99999,10,110,110,0,0,-,-,-,7,6,5,7,4,5,6,4,6,5,7,3,5,6,2,7,3,1,7,6,5,5,5,5,3,1,7,6,6,4,6,4,4,4,4,4,117,86,93,90,89,88,94,91,90,94,94,97,98140501_1213,1,subjects,2,1,17,2,80,80,1,0.506534,0.278917,12,0,1,0,80,2,0,0,22,12,6,98,44,108,24,114,12,98,44,108,24,114,12,99999,0,0,40,40,0,40,80,0,80,0,-,-,-,1,5,5,7,1,7,5,4,6,7,5,7,6,1,5,4,7,5,7,7,2,3,3,7,3,5,7,6,7,7,5,7,1,7,7,3,111,82,82,85,81,89,90,88,80,88,89,85,90140501_1213,1,subjects,2,1,18,2,80,80,1,0.137466,0.407801,5,1,0,0,80,1,0,0,22,12,6,98,44,108,24,114,12,98,44,108,24,114,12,99999,0,0,40,40,99999,40,80,80,0,0,-,-,-,1,7,7,7,1,7,7,1,1,6,7,2,5,3,1,1,7,1,5,6,1,4,4,7,1,3,6,2,7,7,4,7,4,7,7,4,102,85,86,87,78,88,90,86,86,83,85,75,87150401_1456,1,subjects,2,1,1,1,0,0,1,0.055452615,0.022189535,4,0,0,1,0,3,0,0,22,12,6,98,44,108,24,114,12,98,44,108,24,114,12,99999,0,99999,10,0,0,-1,0,0,0,0,0,0,0,4,2,6,7,1,6,4,5,6,5,7,4,4,7,3,1,7,1,5,6,5,6,5,7,6,5,2,4,7,5,4,7,2,7,5,5,111,84,87,86,68,82,94,77,52,73,76,65,64150401_1456,1,subjects,2,1,2,1,0,0,1,0.939510464,0.352363554,21,0,1,0,0,2,0,0,22,12,6,98,44,108,24,114,12,98,44,108,24,114,12,99999,0,0,10,0,0,0,0,0,0,0,-,-,-,4,6,7,7,2,6,6,6,7,6,2,6,6,2,3,6,6,4,4,6,4,6,2,6,5,6,6,7,7,7,2,7,2,7,6,7,103,96,92,92,93,94,97,96,95,95,98,93,96150401_1456,1,subjects,2,1,3,2,0,0,1,0.596624631,0.053279909,13,0,0,1,0,3,0,0,22,12,6,98,44,108,24,114,12,98,44,108,24,114,12,99999,0,99999,10,0,0,-1,0,0,0,0,-,-,-,6,7,7,5,1,7,7,3,5,1,5,2,1,6,3,1,1,7,3,4,5,7,3,1,1,3,5,6,6,4,1,1,4,6,5,3,119,86,90,87,90,92,93,92,87,90,93,85,88150401_1456,1,subjects,2,1,4,8,0,0,1,0.408037476,0.938143878,10,0,0,1,0,3,0,0,22,12,6,98,44,108,24,114,12,98,44,108,24,114,12,99999,1,99999,10,0,0,-1,0,0,0,0,-,-,-,1,5,7,7,3,5,7,4,2,3,7,4,7,3,1,5,4,3,6,5,4,4,4,4,4,4,4,4,4,4,4,4,4,4,4,4,119,91,93,93,92,94,94,96,97,99,99,99,97150401_1456,1,subjects,2,1,5,4,100,100,1,0.756346669,0.536052759,17,1,0,0,100,1,0,0,22,12,6,98,44,108,24,114,12,98,44,108,24,114,12,99999,1,0,20,20,99999,20,100,100,0,0,-,-,-,4,6,5,7,2,6,5,5,6,5,6,1,6,1,3,4,5,2,5,5,1,3,4,6,3,3,6,5,6,5,5,6,2,5,5,5,111,91,88,91,89,91,94,90,86,92,93,85,92150401_1456,1,subjects,2,1,6,8,110,110,1,0.357660369,0.918464784,8,1,0,0,110,1,0,0,22,12,6,98,44,108,24,114,12,98,44,108,24,114,12,99999,1,0,10,0,99999,10,110,110,0,0,-,-,-,1,7,7,6,3,7,4,4,6,6,2,3,6,4,4,3,6,4,7,7,2,6,4,5,2,4,6,6,7,7,6,4,1,7,5,2,110,91,90,91,90,93,94,94,96,92,94,93,96150401_1456,1,subjects,2,1,7,3,20,20,1,0.71079955,0.459680904,15,0,1,0,20,2,0,0,22,12,6,98,44,108,24,114,12,98,44,108,24,114,12,99999,0,0,10,10,0,10,20,0,20,0,-,-,-,5,7,6,7,4,7,5,6,6,7,6,5,7,4,6,3,7,2,6,7,2,7,5,7,6,6,7,3,7,7,5,7,2,5,6,6,110,91,90,90,91,93,94,92,85,90,94,81,92150401_1456,1,subjects,2,1,8,4,40,40,1,0.054140426,0.560053345,3,0,1,0,40,2,0,0,22,12,6,98,44,108,24,114,12,98,44,108,24,114,12,99999,1,0,20,20,0,20,40,0,40,0,-,-,-,2,5,7,7,2,7,5,4,6,7,4,1,7,1,4,3,7,2,4,6,2,4,2,7,2,5,4,5,6,6,3,7,2,3,6,6,103,88,89,90,90,92,88,95,91,93,92,89,86150401_1456,1,subjects,2,1,9,2,0,0,1,0.375044844,0.384161161,9,0,1,0,0,2,0,0,22,12,6,98,44,108,24,114,12,98,44,108,24,114,12,99999,0,0,10,0,0,0,0,0,0,0,-,-,-,5,7,6,7,6,7,4,3,6,7,5,5,7,4,6,5,5,5,6,5,7,5,4,7,5,6,5,4,6,5,6,7,5,7,7,5,119,86,90,86,89,95,93,92,87,90,93,82,91150401_1456,1,subjects,2,1,10,6,60,60,1,0.508272419,0.763895608,12,0,1,0,60,2,0,0,22,12,6,98,44,108,24,114,12,98,44,108,24,114,12,99999,0,0,30,30,0,30,60,0,60,0,-,-,-,3,7,5,7,1,5,7,3,7,5,7,5,7,1,3,2,5,1,1,7,4,3,3,7,1,7,5,7,7,7,2,6,3,7,7,5,110,84,86,87,79,84,93,88,86,76,94,78,85150401_1456,1,subjects,2,1,11,6,0,0,1,0.272706316,0.690682127,7,0,0,1,0,3,0,0,22,12,6,98,44,108,24,114,12,98,44,108,24,114,12,99999,0,99999,30,30,0,-1,0,0,0,0,-,-,-,1,6,6,6,5,6,3,2,5,7,3,2,6,4,3,1,6,3,6,6,3,6,4,6,3,4,6,2,6,6,5,5,5,6,6,3,59,88,87,88,91,82,86,84,76,73,87,65,86150401_1456,1,subjects,2,1,12,4,0,0,1,0.962090022,0.103842013,22,0,0,1,0,3,0,0,22,12,6,98,44,108,24,114,12,98,44,108,24,114,12,99999,1,99999,20,20,0,-1,0,0,0,0,-,-,-,2,7,5,7,1,7,2,3,4,7,3,2,3,6,4,2,6,1,7,7,2,5,5,7,1,1,7,7,4,5,2,7,1,7,7,1,111,91,90,88,89,94,92,96,91,87,98,88,89150401_1456,1,subjects,2,1,13,3,0,0,1,0.820771203,0.100853981,19,0,0,1,0,3,0,0,22,12,6,98,44,108,24,114,12,98,44,108,24,114,12,99999,0,99999,10,10,0,-1,0,0,0,0,-,-,-,7,7,5,7,3,5,6,3,5,1,6,5,6,1,4,5,6,1,5,1,7,3,5,7,6,4,6,7,7,6,3,7,1,3,4,7,103,91,92,89,94,92,94,92,89,90,96,87,92150401_1456,1,subjects,2,1,14,3,110,110,1,0.126352557,0.521321747,5,1,0,0,110,1,0,0,22,12,6,98,44,108,24,114,12,98,44,108,24,114,12,99999,0,0,10,10,99999,10,110,110,0,0,-,-,-,5,7,7,7,4,6,5,6,5,7,4,6,5,6,3,1,7,3,7,7,3,3,6,7,3,5,7,5,7,6,3,6,5,5,6,7,109,85,91,83,82,91,92,91,90,84,93,82,88150401_1456,1,subjects,2,1,15,6,90,90,1,0.98221103,0.778731368,23,1,0,0,90,1,0,0,22,12,6,98,44,108,24,114,12,98,44,108,24,114,12,99999,0,0,30,30,99999,30,90,90,0,0,-,-,-,7,4,3,6,1,5,3,7,7,7,1,5,6,3,4,6,7,3,6,7,2,2,7,5,3,5,7,7,6,7,3,6,7,2,3,7,106,88,92,92,91,92,94,95,86,91,97,91,91150401_1456,1,subjects,2,1,16,7,0,0,1,0.02077473,0.885866386,1,0,0,1,0,3,0,0,22,12,6,98,44,108,24,114,12,98,44,108,24,114,12,99999,0,99999,10,0,0,-1,0,0,0,0,-,-,-,5,7,3,6,3,6,6,4,5,6,7,6,6,2,6,3,6,2,5,6,4,3,2,6,5,4,5,6,6,7,4,4,6,4,5,7,104,87,88,84,85,85,90,90,78,80,94,80,75150401_1456,1,subjects,2,1,17,7,0,0,1,0.992093293,0.837779867,24,0,1,0,0,2,0,0,22,12,6,98,44,108,24,114,12,98,44,108,24,114,12,99999,0,0,10,0,0,0,0,0,0,0,-,-,-,3,7,5,7,3,6,3,3,6,6,6,4,6,3,2,2,4,1,6,6,6,5,5,5,4,3,7,5,5,5,4,7,5,6,6,5,103,87,89,86,72,87,91,81,81,81,89,78,84150401_1456,1,subjects,2,1,18,5,110,110,1,0.607426171,0.637624802,14,1,0,0,110,1,0,0,22,12,6,98,44,108,24,114,12,98,44,108,24,114,12,99999,1,0,10,0,99999,10,110,110,0,0,-,-,-,5,7,7,7,4,6,6,1,6,6,6,4,5,4,2,3,6,4,6,5,6,5,3,7,2,5,6,6,6,7,3,6,1,7,7,5,100,89,91,89,91,91,95,88,88,85,86,83,93150401_1456,1,subjects,2,1,19,8,20,20,1,0.197817029,0.934702573,6,0,1,0,20,2,0,0,22,12,6,98,44,108,24,114,12,98,44,108,24,114,12,99999,1,0,10,0,0,10,20,0,20,0,-,-,-,1,7,7,7,1,7,6,3,7,1,7,1,6,5,2,2,7,1,4,7,2,7,1,7,7,4,4,7,4,1,7,6,1,7,7,7,114,88,91,91,90,92,93,92,92,98,97,93,98150401_1456,1,subjects,2,1,20,5,20,20,1,0.776400434,0.566223352,18,0,1,0,20,2,0,0,22,12,6,98,44,108,24,114,12,98,44,108,24,114,12,99999,1,0,10,0,0,10,20,0,20,0,-,-,-,2,5,7,7,1,4,4,2,5,6,2,2,6,1,2,1,2,2,4,6,2,4,2,4,2,4,3,6,7,7,1,6,2,6,6,2,101,88,80,82,84,84,70,80,57,54,82,74,85150401_1456,1,subjects,2,1,21,7,120,120,1,0.475436111,0.793482129,11,1,0,0,120,1,0,0,22,12,6,98,44,108,24,114,12,98,44,108,24,114,12,99999,0,0,10,0,99999,0,120,120,0,0,-,-,-,3,6,7,7,2,7,2,1,7,6,4,4,5,2,2,2,7,2,4,7,3,4,2,7,3,5,6,5,7,7,3,6,2,7,6,3,105,84,91,88,84,91,90,88,77,84,89,82,89150401_1456,1,subjects,2,1,22,2,120,120,1,0.052867023,0.500284981,2,1,0,0,120,1,0,0,22,12,6,98,44,108,24,114,12,98,44,108,24,114,12,99999,0,0,10,0,99999,0,120,120,0,0,-,-,-,1,6,4,5,2,5,3,4,5,5,5,1,6,3,4,1,4,2,5,5,2,3,4,5,3,4,5,5,5,5,5,3,2,6,6,2,99,88,91,90,84,91,91,90,85,86,90,84,88150401_1456,1,subjects,2,1,23,5,0,0,1,0.728615326,0.438713612,16,0,0,1,0,3,0,0,22,12,6,98,44,108,24,114,12,98,44,108,24,114,12,99999,1,99999,10,0,0,-1,0,0,0,0,-,-,-,7,7,7,6,3,6,4,7,7,7,4,5,7,4,1,4,7,2,4,3,7,5,6,6,4,7,6,6,7,4,4,7,1,7,7,5,110,90,86,92,89,84,95,89,80,77,89,73,85150401_1456,1,subjects,2,1,24,1,120,120,1,0.846998291,0.111983153,20,1,0,0,120,1,0,0,22,12,6,98,44,108,24,114,12,98,44,108,24,114,12,99999,0,0,10,0,99999,0,120,120,0,0,-,-,-,3,7,4,5,1,6,6,4,4,5,5,3,6,4,1,1,1,1,4,4,5,1,6,6,4,6,4,5,7,7,2,2,4,7,7,5,104,81,85,81,63,73,83,71,62,50,56,76,80150406_1046,1,subjects,2,1,1,3,120,120,1,0.628743589,0.303375191,14,1,0,0,120,1,0,0,22,12,6,98,44,108,24,114,12,98,44,108,24,114,12,99999,0,0,10,0,99999,0,120,120,0,0,0,0,0,2,7,6,7,1,5,4,4,6,6,2,1,7,3,3,2,4,2,5,6,2,5,2,6,2,2,5,4,6,7,2,7,1,6,7,2,108,88,90,87,85,89,85,87,89,86,93,86,91150406_1046,1,subjects,2,1,2,6,95,95,1,0.921279321,0.64892097,20,1,0,0,95,1,0,0,22,12,6,98,44,108,24,114,12,98,44,108,24,114,12,99999,1,0,25,30,99999,25,95,95,0,0,-,-,-,3,4,3,6,3,5,5,3,6,6,6,4,5,6,3,2,6,4,4,5,6,5,4,7,3,4,6,4,6,5,4,7,5,4,5,6,108,86,90,88,85,84,93,84,84,86,87,83,86150406_1046,1,subjects,2,1,3,7,20,20,1,0.177816907,0.953549608,6,0,1,0,20,2,0,0,22,12,6,98,44,108,24,114,12,98,44,108,24,114,12,99999,1,0,10,0,0,10,20,0,20,0,-,-,-,6,7,7,7,2,5,5,1,7,7,1,3,6,4,7,1,7,4,7,6,6,3,6,7,3,3,7,7,7,7,3,5,6,6,7,4,105,91,93,94,91,91,94,88,88,85,95,89,93150406_1046,1,subjects,2,1,4,1,105,105,1,0.764957989,0.029981016,17,1,0,0,105,1,0,0,22,12,6,98,44,108,24,114,12,98,44,108,24,114,12,99999,1,0,15,5,99999,15,105,105,0,0,-,-,-,2,7,7,7,5,7,4,6,6,7,2,7,7,1,7,7,2,1,7,7,1,1,5,7,6,7,5,7,7,7,4,7,1,7,7,6,93,90,87,86,80,85,90,91,84,71,93,80,83150406_1046,1,subjects,2,1,5,4,0,0,1,0.293503973,0.568748572,7,0,0,1,0,3,0,0,22,12,6,98,44,108,24,114,12,98,44,108,24,114,12,99999,0,99999,10,0,0,-1,0,0,0,0,-,-,-,4,4,3,4,5,3,2,3,3,4,3,5,6,5,2,3,4,6,6,3,5,3,6,3,5,5,3,4,4,4,4,4,4,4,4,4,118,92,100,99,98,98,98,99999,99,99,98,99,100150406_1046,1,subjects,2,1,6,4,120,120,1,0.54211851,0.385797875,11,1,0,0,120,1,0,0,22,12,6,98,44,108,24,114,12,98,44,108,24,114,12,99999,0,0,10,0,99999,0,120,120,0,0,-,-,-,2,6,6,7,2,7,4,6,3,7,2,1,6,2,1,3,4,1,5,5,3,6,2,7,2,6,7,4,6,7,2,6,1,6,7,6,108,88,91,76,92,80,79,82,83,74,90,58,85150406_1046,1,subjects,2,1,7,5,120,120,1,0.170382821,0.402493097,5,1,0,0,120,1,0,0,22,12,6,98,44,108,24,114,12,98,44,108,24,114,12,99999,0,0,10,0,99999,0,120,120,0,0,-,-,-,2,6,6,6,1,5,5,4,5,7,5,1,5,2,3,3,6,5,6,6,6,6,3,6,4,5,6,6,6,6,5,7,2,6,6,3,97,93,94,89,91,94,93,91,92,87,94,88,97150406_1046,1,subjects,2,1,8,7,110,110,1,0.074490417,0.941554568,2,1,0,0,110,1,0,0,22,12,6,98,44,108,24,114,12,98,44,108,24,114,12,99999,1,0,10,0,99999,10,110,110,0,0,-,-,-,1,7,5,7,4,7,7,7,7,7,5,7,7,1,4,7,7,7,5,6,7,5,6,7,7,7,7,6,6,7,4,7,1,5,4,7,97,88,87,88,86,86,86,89,85,86,90,84,82150406_1046,1,subjects,2,1,9,6,0,0,1,0.701482548,0.883522486,16,0,0,1,0,3,0,0,22,12,6,98,44,108,24,114,12,98,44,108,24,114,12,99999,1,99999,25,30,0,-1,0,0,0,0,-,-,-,5,5,7,7,3,7,4,7,2,6,4,2,6,3,1,5,7,1,5,6,5,6,3,2,5,3,7,6,6,4,3,6,1,6,4,7,108,90,92,93,89,90,95,90,90,87,94,87,91150406_1046,1,subjects,2,1,10,3,0,0,1,0.4147485,0.430069042,10,0,0,1,0,3,0,0,22,12,6,98,44,108,24,114,12,98,44,108,24,114,12,99999,0,99999,10,0,0,-1,0,0,0,0,-,-,-,7,7,5,7,7,7,2,5,7,3,7,5,6,3,6,6,7,2,7,5,6,5,4,7,4,5,6,7,6,6,4,6,5,7,7,7,118,87,92,91,86,88,95,81,83,88,78,86,88150406_1046,1,subjects,2,1,11,7,0,0,1,0.91088574,0.957244716,19,0,0,1,0,3,0,0,22,12,6,98,44,108,24,114,12,98,44,108,24,114,12,99999,1,99999,10,0,0,-1,0,0,0,0,-,-,-,5,7,7,7,2,6,6,7,5,3,7,1,4,5,2,2,5,1,3,7,1,4,7,5,6,7,5,5,7,7,5,7,1,6,7,6,71,96,95,98,92,94,95,96,97,87,97,95,93150406_1046,1,subjects,2,1,12,5,0,0,1,0.096842212,0.850624055,3,0,1,0,0,2,0,0,22,12,6,98,44,108,24,114,12,98,44,108,24,114,12,99999,0,0,10,0,0,0,0,0,0,0,-,-,-,4,4,4,6,4,6,3,5,4,6,6,5,3,4,3,3,5,7,6,6,5,5,5,6,6,5,6,6,5,6,3,6,3,6,7,3,114,88,94,97,99,98,100,99,89,88,97,81,85150406_1046,1,subjects,2,1,13,2,20,20,1,0.678044448,0.362426571,15,0,1,0,20,2,0,0,22,12,6,98,44,108,24,114,12,98,44,108,24,114,12,99999,1,0,10,0,0,10,20,0,20,0,-,-,-,5,6,7,7,1,6,7,2,6,7,2,6,7,2,2,3,2,3,5,6,3,1,2,7,2,6,7,5,7,7,2,7,3,7,7,5,97,88,82,88,82,79,82,79,77,75,82,71,84150406_1046,1,subjects,2,1,14,5,0,0,1,0.624073899,0.826830613,13,0,0,1,0,3,0,0,22,12,6,98,44,108,24,114,12,98,44,108,24,114,12,99999,0,99999,10,0,0,-1,0,0,0,0,-,-,-,1,6,4,7,2,7,2,5,3,5,7,2,5,3,5,5,6,1,5,7,2,7,1,6,2,6,4,7,7,7,6,6,6,6,6,6,109,89,89,92,85,94,93,91,92,84,95,90,94150406_1046,1,subjects,2,1,15,6,50,50,1,0.893037386,0.868263871,18,0,1,0,50,2,0,0,22,12,6,98,44,108,24,114,12,98,44,108,24,114,12,99999,1,0,25,30,0,25,50,0,50,0,-,-,-,1,7,7,7,1,5,4,1,7,7,3,4,7,1,1,1,6,2,7,7,1,1,1,7,2,3,7,5,7,7,2,7,1,6,7,1,106,89,92,87,87,84,88,86,86,76,81,72,85150406_1046,1,subjects,2,1,16,1,30,30,1,0.378025001,0.173621832,9,0,1,0,30,2,0,0,22,12,6,98,44,108,24,114,12,98,44,108,24,114,12,99999,1,0,15,5,0,15,30,0,30,0,-,-,-,5,6,7,7,2,7,3,2,2,7,1,2,7,1,2,2,7,1,1,5,6,3,5,7,4,6,7,1,7,7,7,5,2,6,7,2,97,89,86,82,77,82,87,85,81,82,82,78,86150406_1046,1,subjects,2,1,17,3,0,0,1,0.960443483,0.554400263,21,0,1,0,0,2,0,0,22,12,6,98,44,108,24,114,12,98,44,108,24,114,12,99999,0,0,10,0,0,0,0,0,0,0,-,-,-,3,6,7,7,4,3,5,4,7,4,7,1,4,3,3,5,5,5,5,5,4,6,3,5,3,5,6,4,7,5,5,6,1,6,6,5,89,91,87,89,72,85,87,88,83,74,89,77,87150406_1046,1,subjects,2,1,18,2,0,0,1,0.147086005,0.308255526,4,0,0,1,0,3,0,0,22,12,6,98,44,108,24,114,12,98,44,108,24,114,12,99999,1,99999,10,0,0,-1,0,0,0,0,-,-,-,2,6,7,7,1,5,6,6,5,7,6,5,7,5,3,6,7,5,6,2,7,6,5,7,4,6,7,6,7,7,5,7,3,7,7,6,97,88,88,87,76,85,90,88,80,77,92,83,86150406_1046,1,subjects,2,1,19,2,110,110,1,0.353283003,0.17985723,8,1,0,0,110,1,0,0,22,12,6,98,44,108,24,114,12,98,44,108,24,114,12,99999,1,0,10,0,99999,10,110,110,0,0,-,-,-,6,7,7,7,5,6,6,7,6,5,6,4,6,5,5,5,7,3,7,7,5,6,4,7,5,7,7,6,7,4,4,6,3,7,6,7,108,88,91,86,86,88,91,83,89,77,82,69,87150406_1046,1,subjects,2,1,20,1,0,0,1,0.067546513,0.062122737,1,0,0,1,0,3,0,0,22,12,6,98,44,108,24,114,12,98,44,108,24,114,12,99999,1,99999,15,5,0,-1,0,0,0,0,-,-,-,5,7,7,7,3,6,4,6,7,7,4,7,7,3,5,3,6,5,5,7,3,5,5,7,3,6,7,6,7,7,5,7,2,7,7,7,108,90,92,95,89,88,95,90,88,85,94,89,90150406_1046,1,subjects,2,1,21,4,0,0,1,0.577151057,0.627425899,12,0,1,0,0,2,0,0,22,12,6,98,44,108,24,114,12,98,44,108,24,114,12,99999,0,0,10,0,0,0,0,0,0,0,-,-,-,3,5,6,7,1,3,3,4,6,7,5,5,6,2,5,1,3,2,4,6,2,2,3,7,2,2,5,5,7,5,3,7,1,6,6,3,89,88,91,88,86,91,89,91,77,89,93,85,91150413_1027,1,subjects,2,1,1,7,0,0,1,0.408430324,0.674456102,7,0,0,1,0,3,0,0,22,12,6,98,44,108,24,114,12,98,44,108,24,114,12,99999,1,99999,40,40,0,-1,0,0,0,0,0,0,0,5,6,3,5,2,6,3,5,5,3,6,2,2,5,2,4,6,2,4,5,4,5,2,5,3,5,6,5,3,5,4,5,2,5,4,4,111,85,94,92,89,93,90,86,92,88,97,91,95150413_1027,1,subjects,2,1,2,5,100,100,1,0.760944624,0.756088219,14,1,0,0,100,1,0,0,22,12,6,98,44,108,24,114,12,98,44,108,24,114,12,99999,1,0,20,20,99999,20,100,100,0,0,-,-,-,2,6,5,6,3,6,5,4,5,7,2,2,6,2,3,2,5,2,5,5,5,3,6,4,3,5,4,5,5,5,3,5,4,6,6,6,107,87,92,90,88,89,93,85,91,87,87,89,93150413_1027,1,subjects,2,1,3,6,90,90,1,0.950392086,0.76475126,20,1,0,0,90,1,0,0,22,12,6,98,44,108,24,114,12,98,44,108,24,114,12,99999,1,0,30,30,99999,30,90,90,0,0,-,-,-,5,7,3,5,1,7,7,5,6,7,2,4,7,1,4,4,7,2,7,6,5,2,4,7,4,3,6,6,6,5,5,6,2,7,7,6,111,81,80,79,78,83,87,79,65,63,81,57,82150413_1027,1,subjects,2,1,4,7,80,80,1,0.239790003,0.703072331,3,0,1,0,80,2,0,0,22,12,6,98,44,108,24,114,12,98,44,108,24,114,12,99999,1,0,40,40,0,40,80,0,80,0,-,-,-,1,7,6,7,2,6,5,1,6,3,7,2,7,1,2,1,6,1,3,7,1,5,1,6,1,1,7,6,7,7,5,7,1,7,7,4,96,84,82,81,76,84,89,73,71,75,79,68,76150413_1027,1,subjects,2,1,5,2,0,0,1,0.929062947,0.174427817,19,0,0,1,0,3,0,0,22,12,6,98,44,108,24,114,12,98,44,108,24,114,12,99999,1,99999,30,30,0,-1,0,0,0,0,-,-,-,4,6,6,7,3,7,6,4,6,7,7,4,7,2,5,4,7,4,5,5,6,4,6,6,3,6,6,6,6,6,7,7,2,6,7,4,96,86,86,88,81,88,92,87,89,89,91,85,90150413_1027,1,subjects,2,1,6,5,40,40,1,0.701008998,0.634835105,12,0,1,0,40,2,0,0,22,12,6,98,44,108,24,114,12,98,44,108,24,114,12,99999,1,0,20,20,0,20,40,0,40,0,-,-,-,2,7,6,7,4,5,2,5,7,7,2,6,7,2,4,5,7,2,6,6,5,5,3,7,3,5,7,5,6,6,4,6,1,7,6,6,117,75,89,85,79,90,91,92,89,87,92,84,92150413_1027,1,subjects,2,1,7,1,110,110,1,0.196300948,0.024369778,2,1,0,0,110,1,0,0,22,12,6,98,44,108,24,114,12,98,44,108,24,114,12,99999,1,0,10,10,99999,10,110,110,0,0,-,-,-,1,4,3,7,1,7,4,4,4,1,7,7,4,1,1,4,4,4,4,4,4,4,4,4,4,4,4,4,4,4,1,7,1,4,4,4,117,80,86,87,62,83,88,78,85,91,86,73,88150413_1027,1,subjects,2,1,8,4,80,80,1,0.832672074,0.488449763,15,0,1,0,80,2,0,0,22,12,6,98,44,108,24,114,12,98,44,108,24,114,12,99999,0,0,40,40,0,40,80,0,80,0,-,-,-,6,7,6,6,7,7,4,6,7,5,6,7,6,2,4,3,6,1,6,6,3,1,4,7,1,3,5,6,7,7,3,6,1,6,6,7,105,80,90,91,86,84,90,92,86,84,94,85,89150413_1027,1,subjects,2,1,9,4,0,0,1,0.723122215,0.375171253,13,0,0,1,0,3,0,0,22,12,6,98,44,108,24,114,12,98,44,108,24,114,12,99999,0,99999,40,40,0,-1,0,0,0,0,-,-,-,1,7,1,4,4,4,7,1,1,1,7,1,2,7,2,7,7,7,7,3,7,7,1,2,2,4,2,2,4,7,6,6,5,6,7,6,115,87,88,90,88,84,87,88,78,78,75,82,85150413_1027,1,subjects,2,1,10,6,0,0,1,0.583708941,0.503244146,10,0,0,1,0,3,0,0,22,12,6,98,44,108,24,114,12,98,44,108,24,114,12,99999,1,99999,30,30,0,-1,0,0,0,0,-,-,-,5,5,5,7,3,7,3,5,6,7,7,7,6,5,4,3,5,2,6,6,6,5,5,7,2,3,6,4,5,7,6,6,5,6,6,6,116,85,87,90,80,87,92,86,83,84,93,84,91150413_1027,1,subjects,2,1,11,6,60,60,1,0.920135844,0.673605595,18,0,1,0,60,2,0,0,22,12,6,98,44,108,24,114,12,98,44,108,24,114,12,99999,1,0,30,30,0,30,60,0,60,0,-,-,-,3,7,6,7,2,6,3,2,6,7,6,4,6,6,2,1,6,2,6,6,5,2,6,4,2,6,6,2,7,5,4,6,3,6,6,4,106,83,92,88,85,84,88,89,89,85,89,71,77150413_1027,1,subjects,2,1,12,7,80,80,1,0.494552888,0.850333791,8,1,0,0,80,1,0,0,22,12,6,98,44,108,24,114,12,98,44,108,24,114,12,99999,1,0,40,40,99999,40,80,80,0,0,-,-,-,5,7,4,7,1,6,3,4,6,7,7,6,7,4,5,3,6,3,4,6,6,3,6,6,4,5,6,6,6,6,5,6,2,6,5,5,107,78,86,85,72,88,87,77,84,84,90,71,83150413_1027,1,subjects,2,1,13,1,20,20,1,0.96207193,0.150579196,21,0,1,0,20,2,0,0,22,12,6,98,44,108,24,114,12,98,44,108,24,114,12,99999,1,0,10,10,0,10,20,0,20,0,-,-,-,5,7,6,6,2,5,6,2,5,7,3,5,5,3,2,4,6,6,5,5,4,5,2,7,2,6,6,3,6,6,2,6,6,7,6,6,101,80,87,88,83,89,89,83,83,82,89,74,83150413_1027,1,subjects,2,1,14,3,0,0,1,0.858232479,0.351641616,16,0,0,1,0,3,0,0,22,12,6,98,44,108,24,114,12,98,44,108,24,114,12,99999,1,99999,10,10,0,-1,0,0,0,0,-,-,-,4,6,5,7,4,6,5,6,4,5,7,3,7,3,5,4,7,6,5,7,4,7,5,6,3,7,6,4,6,7,5,6,2,6,7,7,104,79,83,80,72,82,85,80,87,77,86,76,78150413_1027,1,subjects,2,1,15,2,60,60,1,0.396168216,0.258495792,6,0,1,0,60,2,0,0,22,12,6,98,44,108,24,114,12,98,44,108,24,114,12,99999,1,0,30,30,0,30,60,0,60,0,-,-,-,7,5,2,7,2,5,1,4,6,4,7,2,6,2,2,2,6,3,2,3,6,7,1,1,2,3,7,3,2,7,4,3,3,7,7,4,116,88,89,91,88,92,90,90,92,89,96,87,94150413_1027,1,subjects,2,1,16,3,110,110,1,0.370006728,0.125632849,5,1,0,0,110,1,0,0,22,12,6,98,44,108,24,114,12,98,44,108,24,114,12,99999,1,0,10,10,99999,10,110,110,0,0,-,-,-,3,6,7,7,1,4,6,5,6,6,5,7,5,6,4,1,6,1,5,7,3,6,5,7,3,4,6,4,7,6,5,7,4,7,7,2,106,86,88,89,82,87,88,89,88,68,90,81,87150413_1027,1,subjects,2,1,17,4,80,80,1,0.911473989,0.410087779,17,1,0,0,80,1,0,0,22,12,6,98,44,108,24,114,12,98,44,108,24,114,12,99999,0,0,40,40,99999,40,80,80,0,0,-,-,-,6,7,7,7,2,4,4,7,7,1,7,3,7,4,2,3,2,2,5,7,4,2,2,7,4,2,7,5,7,7,2,7,1,7,7,3,115,77,83,87,80,87,91,85,87,83,93,91,89150413_1027,1,subjects,2,1,18,1,0,0,1,0.011810231,0.116468034,1,0,0,1,0,3,0,0,22,12,6,98,44,108,24,114,12,98,44,108,24,114,12,99999,1,99999,10,10,0,-1,0,0,0,0,-,-,-,3,6,7,6,4,7,4,2,6,7,1,3,6,3,1,1,6,2,6,7,6,6,5,6,3,4,7,3,7,7,3,7,3,7,7,4,111,80,81,87,85,75,88,93,76,89,91,89,93150413_1027,1,subjects,2,1,19,5,0,0,1,0.313266908,0.399203798,4,0,0,1,0,3,0,0,22,12,6,98,44,108,24,114,12,98,44,108,24,114,12,99999,1,99999,20,20,0,-1,0,0,0,0,-,-,-,4,7,7,7,2,5,5,5,6,6,4,3,7,3,6,4,7,2,6,7,3,5,3,7,3,7,6,7,7,7,6,7,3,6,7,5,84,78,73,65,52,70,72,78,56,50,85,47,73150413_1027,1,subjects,2,1,20,3,20,20,1,0.511295072,0.323996554,9,0,1,0,20,2,0,0,22,12,6,98,44,108,24,114,12,98,44,108,24,114,12,99999,1,0,10,10,0,10,20,0,20,0,-,-,-,3,7,6,7,1,7,3,1,4,7,5,3,5,1,7,1,4,1,2,7,1,3,4,7,1,4,7,7,7,7,7,7,4,7,7,4,106,83,91,86,67,83,90,83,84,84,92,54,83150413_1027,1,subjects,2,1,21,2,90,90,1,0.692225399,0.071476342,11,1,0,0,90,1,0,0,22,12,6,98,44,108,24,114,12,98,44,108,24,114,12,99999,1,0,30,30,99999,30,90,90,0,0,-,-,-,4,6,7,7,1,5,3,2,6,5,7,2,6,1,1,2,6,4,3,7,4,4,2,6,2,4,7,7,7,3,3,7,1,5,5,5,109,87,92,89,88,88,86,88,92,88,96,89,93150413_1152,1,subjects,2,1,1,5,60,60,1,0.590098521,0.702680065,12,0,1,0,60,2,0,0,22,12,6,98,44,108,24,114,12,98,44,108,24,114,12,99999,1,0,30,30,0,30,60,0,60,0,0,0,0,2,7,5,7,2,7,5,2,7,2,7,3,6,2,6,2,7,4,7,4,1,6,3,5,4,5,6,6,5,7,3,6,4,6,7,3,117,84,86,81,84,87,91,91,85,82,86,77,86150413_1152,1,subjects,2,1,2,1,80,80,1,0.599344908,0.081614963,14,1,0,0,80,1,0,0,22,12,6,98,44,108,24,114,12,98,44,108,24,114,12,99999,1,0,40,40,99999,40,80,80,0,0,-,-,-,7,7,4,7,4,7,7,7,7,7,7,5,7,3,7,4,7,1,7,3,6,7,4,7,5,7,7,7,4,5,5,7,7,7,7,1,117,90,84,91,82,91,93,93,89,91,94,87,91150413_1152,1,subjects,2,1,3,2,20,20,1,0.526890441,0.372881805,9,0,1,0,20,2,0,0,22,12,6,98,44,108,24,114,12,98,44,108,24,114,12,99999,1,0,10,10,0,10,20,0,20,0,-,-,-,5,6,4,7,4,6,7,5,6,5,6,5,6,3,5,7,6,3,6,6,2,7,5,4,3,6,7,6,6,6,2,6,3,7,7,6,108,90,90,94,83,88,92,89,94,92,93,88,84150413_1152,1,subjects,2,1,4,3,0,0,1,0.20068685,0.462076055,4,0,0,1,0,3,0,0,22,12,6,98,44,108,24,114,12,98,44,108,24,114,12,99999,1,99999,20,20,0,-1,0,0,0,0,-,-,-,6,7,7,7,3,6,6,5,5,7,4,7,7,1,4,5,7,5,6,7,4,5,5,7,3,5,4,6,7,6,4,7,7,7,6,6,118,88,91,91,79,89,69,88,44,74,78,81,59150413_1152,1,subjects,2,1,5,1,0,0,1,0.780536706,0.023234742,16,0,0,1,0,3,0,0,22,12,6,98,44,108,24,114,12,98,44,108,24,114,12,99999,1,99999,40,40,0,-1,0,0,0,0,-,-,-,2,2,1,7,2,3,4,4,6,7,3,5,7,4,2,6,6,2,6,7,6,5,2,6,2,4,7,6,7,5,4,7,4,6,4,7,115,87,92,94,89,93,92,93,94,94,97,96,98150413_1152,1,subjects,2,1,6,4,110,110,1,0.249199161,0.361127035,5,1,0,0,110,1,0,0,22,12,6,98,44,108,24,114,12,98,44,108,24,114,12,99999,1,0,10,0,99999,10,110,110,0,0,-,-,-,1,5,7,7,2,2,7,1,5,7,6,6,3,5,1,4,7,1,1,4,7,4,3,7,1,7,7,1,5,7,4,6,5,7,7,1,115,85,94,90,88,84,92,86,94,93,95,89,90150413_1152,1,subjects,2,1,7,7,0,0,1,0.85754894,0.977490436,19,0,0,1,0,3,0,0,22,12,6,98,44,108,24,114,12,98,44,108,24,114,12,99999,1,99999,10,0,0,-1,0,0,0,0,-,-,-,5,4,7,6,5,5,7,7,4,6,6,5,5,6,2,7,7,7,6,6,6,3,6,7,3,7,5,7,7,7,2,4,7,6,5,5,94,88,85,89,82,89,95,89,88,74,89,79,85150413_1152,1,subjects,2,1,8,5,0,0,1,0.537945939,0.943855113,10,0,0,1,0,3,0,0,22,12,6,98,44,108,24,114,12,98,44,108,24,114,12,99999,1,99999,30,30,0,-1,0,0,0,0,-,-,-,3,6,6,6,1,4,1,3,6,6,6,6,6,2,1,4,6,2,6,6,6,4,2,6,4,5,4,3,6,5,5,7,1,5,5,6,117,85,94,90,89,91,93,91,86,93,93,91,90150413_1152,1,subjects,2,1,9,2,110,110,1,0.173289287,0.112250259,2,1,0,0,110,1,0,0,22,12,6,98,44,108,24,114,12,98,44,108,24,114,12,99999,1,0,10,10,99999,10,110,110,0,0,-,-,-,3,7,3,6,3,6,6,5,6,5,5,5,4,5,2,5,6,3,4,4,4,3,5,6,2,6,5,5,5,5,5,6,6,6,7,6,119,88,92,93,91,87,93,92,92,91,97,93,91150413_1152,1,subjects,2,1,10,3,100,100,1,0.785834884,0.25043275,17,1,0,0,100,1,0,0,22,12,6,98,44,108,24,114,12,98,44,108,24,114,12,99999,1,0,20,20,99999,20,100,100,0,0,-,-,-,5,6,7,7,2,7,3,4,5,6,3,1,6,1,5,1,6,1,2,6,2,4,3,7,3,4,7,5,7,6,4,7,3,5,5,5,120,75,86,82,77,87,85,76,73,52,76,52,75150413_1152,1,subjects,2,1,11,7,110,110,1,0.473054179,0.953129601,8,1,0,0,110,1,0,0,22,12,6,98,44,108,24,114,12,98,44,108,24,114,12,99999,1,0,10,0,99999,10,110,110,0,0,-,-,-,2,7,7,7,4,6,4,4,6,2,7,6,5,3,3,1,7,2,6,7,3,4,6,7,1,4,6,5,7,7,4,5,2,6,7,4,117,84,92,91,86,87,91,91,89,90,94,86,88150413_1152,1,subjects,2,1,12,5,90,90,1,0.538732988,0.460673454,11,1,0,0,90,1,0,0,22,12,6,98,44,108,24,114,12,98,44,108,24,114,12,99999,1,0,30,30,99999,30,90,90,0,0,-,-,-,2,6,7,7,3,5,4,5,6,7,2,4,5,4,5,1,6,1,5,6,5,4,5,6,4,5,5,5,7,6,4,6,2,6,7,7,118,88,89,87,70,86,90,91,88,83,86,87,79150413_1152,1,subjects,2,1,13,6,0,0,1,0.33616809,0.943891527,7,0,0,1,0,3,0,0,22,12,6,98,44,108,24,114,12,98,44,108,24,114,12,99999,1,99999,10,0,0,-1,0,0,0,0,-,-,-,3,5,1,7,1,3,6,3,5,2,6,7,3,6,4,5,7,3,4,5,7,7,5,4,5,6,7,7,6,7,1,4,5,7,7,3,107,58,71,79,71,74,86,59,63,64,76,67,80150413_1152,1,subjects,2,1,14,4,0,0,1,0.59318483,0.93149721,13,0,0,1,0,3,0,0,22,12,6,98,44,108,24,114,12,98,44,108,24,114,12,99999,1,99999,10,0,0,-1,0,0,0,0,-,-,-,6,6,6,7,4,6,6,6,4,4,7,3,6,4,6,4,6,3,7,7,4,5,3,7,6,6,6,5,7,5,4,7,3,7,7,6,112,83,92,89,88,91,93,87,93,90,93,90,92150413_1152,1,subjects,2,1,15,2,0,0,1,0.071173269,0.276022647,1,0,0,1,0,3,0,0,22,12,6,98,44,108,24,114,12,98,44,108,24,114,12,99999,1,99999,10,10,0,-1,0,0,0,0,-,-,-,7,7,5,7,3,6,6,2,4,7,5,4,5,3,1,3,6,5,6,5,6,5,2,7,7,7,7,6,5,2,5,6,1,6,6,7,115,86,90,92,82,74,92,88,92,89,92,82,91150413_1152,1,subjects,2,1,16,6,110,110,1,0.964214152,0.755258949,20,1,0,0,110,1,0,0,22,12,6,98,44,108,24,114,12,98,44,108,24,114,12,99999,1,0,10,0,99999,10,110,110,0,0,-,-,-,2,7,7,7,1,6,1,7,7,6,4,7,4,3,7,4,7,1,7,7,4,4,4,7,4,4,7,7,7,7,4,7,4,7,6,5,112,83,90,86,75,86,94,89,87,84,88,85,81150413_1152,1,subjects,2,1,17,1,80,80,1,0.977081444,0.00365685,21,0,1,0,80,2,0,0,22,12,6,98,44,108,24,114,12,98,44,108,24,114,12,99999,1,0,40,40,0,40,80,0,80,0,-,-,-,2,4,6,7,4,6,5,4,5,2,6,2,6,3,4,2,6,3,6,6,4,6,3,6,4,3,4,5,6,3,3,3,5,5,3,4,100,90,84,82,84,86,94,91,79,73,87,83,88150413_1152,1,subjects,2,1,18,3,40,40,1,0.807823226,0.4345787,18,0,1,0,40,2,0,0,22,12,6,98,44,108,24,114,12,98,44,108,24,114,12,99999,1,0,20,20,0,20,40,0,40,0,-,-,-,2,6,6,7,1,5,5,3,6,6,3,5,7,1,2,1,6,1,4,6,4,6,2,6,2,3,6,5,6,5,1,6,1,6,3,4,95,87,86,85,85,90,90,93,89,85,89,86,86150413_1152,1,subjects,2,1,19,7,20,20,1,0.290306021,0.984896055,6,0,1,0,20,2,0,0,22,12,6,98,44,108,24,114,12,98,44,108,24,114,12,99999,1,0,10,0,0,10,20,0,20,0,-,-,-,5,6,7,7,4,6,4,2,7,7,5,6,7,3,5,4,7,5,2,7,5,6,4,7,4,6,7,5,7,6,5,7,2,7,7,7,115,86,95,92,94,91,94,90,93,91,93,94,94150413_1152,1,subjects,2,1,20,4,20,20,1,0.690769459,0.673602983,15,0,1,0,20,2,0,0,22,12,6,98,44,108,24,114,12,98,44,108,24,114,12,99999,1,0,10,0,0,10,20,0,20,0,-,-,-,4,6,7,7,3,6,5,4,5,4,6,5,6,6,6,2,1,4,4,4,4,6,5,5,4,2,7,6,6,7,5,6,3,5,5,5,117,90,89,91,86,93,88,92,88,94,94,93,99150413_1152,1,subjects,2,1,21,6,20,20,1,0.189862161,0.825033389,3,0,1,0,20,2,0,0,22,12,6,98,44,108,24,114,12,98,44,108,24,114,12,99999,1,0,10,0,0,10,20,0,20,0,-,-,-,7,1,7,7,7,7,7,7,7,7,1,7,7,1,7,1,7,7,7,7,7,4,4,7,7,7,7,7,7,7,7,7,7,7,7,7,115,86,86,89,76,85,90,92,88,83,89,84,89